timestamp,Accel_x,Accel_y,Accel_z,Gyro_x,Gyro_y,Gyro_z,Mag_x,Mag_y,Mag_z
1698522760.6644754,-0.010120261460542679,0.09663144499063492,0.9557790756225586,0.022679075598716736,0.002084655687212944,-0.11265020072460175,-15.238179206848145,-14.627372741699219,-20.324996948242188
1698522760.7247922,-0.0019746851176023483,0.0424887016415596,0.9679639339447021,0.14547964930534363,-0.16419298946857452,0.1268080472946167,-23.08551597595215,-21.508438110351562,-32.09938049316406
1698522760.8652961,0.008243161253631115,0.11119899898767471,0.9735689163208008,-0.2115710824728012,0.11039093881845474,-0.14380525052547455,-26.584997177124023,-24.61485481262207,-36.45863723754883
1698522760.99543,-0.06689245998859406,0.08352064341306686,0.9530983567237854,0.020212210714817047,-0.014286789111793041,-0.13658356666564941,-28.574535369873047,-26.31122398376465,-39.01873779296875
1698522761.1407645,0.019880564883351326,0.0978454053401947,0.990384042263031,-0.18818101286888123,0.11358566582202911,0.1228143572807312,-29.461956024169922,-26.7428035736084,-40.17686462402344
1698522761.206204,-0.02369622141122818,0.0776936262845993,0.9716193079948425,0.036253031343221664,-0.12799514830112457,0.02182428538799286,-29.54566764831543,-27.709884643554688,-41.348297119140625
1698522761.320395,0.009940282441675663,0.09930216521024704,0.9574849009513855,-0.14303435385227203,-0.09221044182777405,0.013950007036328316,-28.894859313964844,-27.020587921142578,-42.46000671386719
1698522761.4642625,-0.013822796754539013,0.006555399391800165,0.9604092836380005,-0.27253779768943787,0.003389962948858738,-0.020869310945272446,-27.096010208129883,-26.109548568725586,-42.83712387084961
1698522761.5884478,-0.012588618323206902,-0.024122590199112892,0.9708882570266724,-0.24865345656871796,0.07015343010425568,0.07344944775104523,-25.150283813476562,-25.760400772094727,-43.582637786865234
1698522761.7150574,0.04000357538461685,0.033748168498277664,1.0520392656326294,0.1115599274635315,-0.05476946011185646,0.2636776268482208,-26.81907081604004,-27.188556671142578,-43.365848541259766
1698522761.8177156,0.008970499038696289,-0.0009649035637266934,0.9596782326698303,0.21601788699626923,-0.0578237883746624,0.15983054041862488,-27.714954376220703,-28.269691467285156,-43.83362579345703
1698522761.9300554,0.020123012363910675,0.054385535418987274,0.9438378810882568,-0.15855416655540466,0.14864003658294678,0.06343552470207214,-28.15605354309082,-28.62051773071289,-44.17629623413086
1698522762.0502687,0.01624387688934803,0.05098643898963928,0.970400869846344,-0.021412774920463562,0.04989643394947052,-0.049976326525211334,-28.74671173095703,-28.575258255004883,-43.203758239746094
1698522762.178863,-0.06294309347867966,-0.0045832921750843525,0.9777117371559143,0.15923961997032166,-0.061683304607868195,-0.21035604178905487,-29.04144859313965,-28.647640228271484,-43.9776611328125
1698522762.289404,-0.018019001930952072,0.09007604420185089,0.9764932990074158,0.08074343204498291,-0.12399155646562576,-0.27113714814186096,-29.102378845214844,-28.69985008239746,-44.343544006347656
1698522762.4114206,-0.07405069470405579,0.08133551478385925,1.008173942565918,0.1821470558643341,-0.23944509029388428,-0.33313998579978943,-28.991018295288086,-28.844402313232422,-43.1224479675293
1698522762.541491,-0.028879769146442413,0.10464359819889069,0.9435941576957703,0.012631958350539207,-0.10016781091690063,-0.17217697203159332,-28.618267059326172,-29.304668426513672,-43.13664627075195
1698522762.6671028,-0.03381648287177086,0.12115348875522614,1.040341854095459,-0.05731211230158806,0.08675695210695267,0.02818683162331581,-28.340694427490234,-29.414308547973633,-43.47740936279297
1698522762.7821548,0.05212587118148804,0.0276783537119627,0.9918461441993713,-0.04704217240214348,0.010529459454119205,0.170624777674675,-28.604501724243164,-29.371971130371094,-43.26828384399414
1698522762.91543,-0.033075977116823196,0.0016995479818433523,0.9085018634796143,-0.3629235625267029,0.3166474997997284,0.24644581973552704,-29.199050903320312,-29.53546714782715,-43.4453125
1698522763.0548985,-0.0004936712794005871,-0.04462679103016853,1.0020813941955566,0.0732342079281807,-0.04193038120865822,0.19421683251857758,-29.135196685791016,-30.358631134033203,-44.06978225708008
1698522763.1726801,-0.0970064103603363,-0.0036183884367346764,0.9331152439117432,0.07982508838176727,0.043030645698308945,0.03292309492826462,-29.519556045532227,-30.677104949951172,-44.3165283203125
1698522763.292598,-0.09256336838006973,-0.004342066124081612,1.0871316194534302,0.04360513761639595,0.13747408986091614,-0.1968458592891693,-29.75210189819336,-30.51559066772461,-44.917327880859375
1698522763.415302,-0.10391780734062195,0.050015270709991455,1.0006192922592163,0.09491781890392303,-0.3054032027721405,-0.2585432529449463,-30.10289192199707,-30.33629608154297,-44.039649963378906
1698522763.5421665,-0.02739875763654709,0.028163937851786613,0.854401171207428,0.0017608669586479664,-0.0011923238635063171,-0.20845229923725128,-30.507564544677734,-30.27743911743164,-44.194583892822266
1698522763.6659808,0.03151796758174896,0.06118372827768326,0.9338463544845581,-0.06473754346370697,0.041146814823150635,0.17091801762580872,-30.691944122314453,-31.0146484375,-44.66368865966797
1698522763.829246,-0.07158233970403671,0.04394545406103134,0.9121572971343994,-0.008094143122434616,-0.03431925177574158,0.08906672894954681,-31.334163665771484,-31.795331954956055,-44.39116668701172
1698522763.9806895,0.030063293874263763,0.10877107083797455,1.0864005088806152,-0.10336495190858841,0.10526766628026962,0.039874665439128876,-31.813753128051758,-32.602867126464844,-44.76454544067383
1698522764.1283872,0.05648989602923393,-0.025811171159148216,1.1097954511642456,0.07725568115711212,-0.27414971590042114,-0.0823371410369873,-30.349443435668945,-31.70145034790039,-45.040287017822266
1698522764.2472858,-0.0446772500872612,-0.11217004060745239,0.9367707371711731,0.05403542146086693,-0.10227546095848083,0.043670881539583206,-29.348657608032227,-30.999483108520508,-45.38534927368164
1698522764.37546,0.01309207919985056,-0.011096390895545483,0.8838884830474854,0.08435839414596558,0.11926254630088806,0.0822761207818985,-28.689876556396484,-30.611900329589844,-45.231407165527344
1698522764.5222678,-0.047886114567518234,0.014081968925893307,0.902653157711029,0.1316739171743393,-0.020566480234265327,0.08445465564727783,-27.150150299072266,-30.71001434326172,-46.229007720947266
1698522764.6585252,0.054792776703834534,0.07575128227472305,1.179492712020874,0.21485371887683868,-0.06051483377814293,-0.5000818371772766,-26.34307861328125,-30.522064208984375,-46.22222137451172
1698522764.791502,0.0848560705780983,0.07526569813489914,0.9974511861801147,0.13238690793514252,0.2870675027370453,-0.39623475074768066,-25.180187225341797,-30.275806427001953,-45.413246154785156
1698522764.9130034,0.051883429288864136,0.0424887016415596,0.8836447596549988,-0.1091766357421875,0.08254379779100418,-0.1006874069571495,-23.963430404663086,-30.20981216430664,-45.754825592041016
1698522765.047067,-0.041221555322408676,0.07356615364551544,0.8154096603393555,-0.03159187361598015,0.014641491696238518,-0.03117886744439602,-23.693164825439453,-30.731904983520508,-45.30015182495117
1698522765.189479,-0.038506362587213516,0.05827021971344948,1.0284007787704468,-0.12830911576747894,0.15606480836868286,0.2173076719045639,-23.084505081176758,-31.277231216430664,-45.35505294799805
1698522765.33261,-0.025670906528830528,0.0036418887320905924,1.091761827468872,-0.023545734584331512,-0.022307831794023514,0.1827937811613083,-20.610029220581055,-30.248510360717773,-44.12164306640625
1698522765.4246225,0.09770569950342178,0.049286894500255585,1.0110981464385986,-0.05805962532758713,0.13010303676128387,0.182488352060318,-19.50362205505371,-29.50795555114746,-43.008262634277344
1698522765.5933883,0.043397821485996246,0.03059186413884163,0.8712162375450134,-0.02165321260690689,0.08344750106334686,0.04233331233263016,-17.869644165039062,-29.198259353637695,-41.832427978515625
1698522765.7278905,-0.0698544830083847,-0.0123025206848979,0.9082581996917725,0.14158585667610168,-0.10966655611991882,0.0878063291311264,-16.49757194519043,-29.01513671875,-41.33449935913086
1698522765.8796139,-0.004936712794005871,0.09881658107042313,1.136358380317688,0.16154390573501587,-0.030002273619174957,-0.29633286595344543,-15.02629280090332,-28.812744140625,-41.039337158203125
1698522766.0410438,0.14861935377120972,0.12673772871494293,0.9560227394104004,0.14077448844909668,0.32307782769203186,-0.382770299911499,-13.890409469604492,-27.98672866821289,-40.18764877319336
1698522766.1710775,0.03176041692495346,0.0776936262845993,0.8911994099617004,-0.03456386178731918,-0.08535370230674744,-0.13970133662223816,-13.443817138671875,-27.856609344482422,-38.40633773803711
1698522766.3239303,-0.03085445426404476,0.11289854347705841,0.888518750667572,-0.26272204518318176,0.060643088072538376,0.024926859885454178,-12.681056022644043,-27.123008728027344,-37.6566276550293
1698522766.4485266,-0.1029304638504982,0.12406700849533081,1.0588628053665161,-0.2453123778104782,0.14952398836612701,0.14709989726543427,-11.836627006530762,-26.34818458557129,-36.27962112426758
1698522766.5649555,-0.027645593509078026,0.019423406571149826,1.14976167678833,-0.047086600214242935,-0.34313881397247314,0.10036871582269669,-10.726129531860352,-25.838096618652344,-35.47808074951172
1698522766.7053666,-0.03949370235204697,0.04176032170653343,0.854401171207428,-0.11122744530439377,-0.07435812801122665,-0.002867508679628372,-10.10119342803955,-25.791637420654297,-34.57297897338867
1698522766.8092835,0.06424816697835922,-0.03714878484606743,0.8870565295219421,0.06811880320310593,-0.040375787764787674,-0.019035479053854942,-9.564091682434082,-25.726333618164062,-34.193424224853516
1698522766.9445734,-0.08713298290967941,-0.005548195447772741,0.8865691423416138,0.12553231418132782,0.03868091106414795,-0.04003680497407913,-9.527999877929688,-25.614398956298828,-33.120731353759766
1698522767.0771728,-0.005183548666536808,0.07065263390541077,1.0907871723175049,0.27653154730796814,0.26589125394821167,-0.2564905881881714,-9.160065650939941,-25.089237213134766,-32.426292419433594
1698522767.2206335,0.07734024524688721,0.1218818724155426,1.1692575216293335,0.034323472529649734,-0.2924395799636841,-0.2305288016796112,-9.372204780578613,-23.92177391052246,-32.030662536621094
1698522767.3610222,0.11855605244636536,0.14227645099163055,0.9945268034934998,-0.11656024307012558,0.02795923687517643,-0.10407969355583191,-9.049202919006348,-23.416887283325195,-31.17017936706543
1698522767.4867833,0.008000715635716915,0.11702601611614227,0.8168718218803406,-0.05519075319170952,0.181678906083107,0.0843093991279602,-9.295764923095703,-23.800077438354492,-31.944549560546875
1698522767.6159382,-0.030360786244273186,0.11654043942689896,0.8712162375450134,0.015058748424053192,-0.011659940704703331,0.28986555337905884,-9.604750633239746,-24.125242233276367,-31.26207160949707
1698522767.7509003,0.00315179699100554,0.12819448113441467,1.000375509262085,-0.2940390408039093,0.13861291110515594,0.4239504635334015,-9.102838516235352,-25.53206443786621,-31.286632537841797
1698522767.8752122,0.0790373682975769,-0.007719228509813547,1.100778579711914,-0.13918472826480865,-0.44140365719795227,0.37966275215148926,-7.622361660003662,-25.599441528320312,-31.753450393676758
1698522767.969221,0.06279349327087402,-0.0123025206848979,0.9297034740447998,-0.0612994059920311,-0.09046155214309692,0.2519918978214264,-6.527721881866455,-26.228416442871094,-31.666343688964844
1698522768.1302443,0.13504236936569214,0.03811843320727348,0.9596782326698303,-0.04663864150643349,-0.06877584010362625,-0.18447129428386688,-5.815869331359863,-26.413307189941406,-32.20989990234375
1698522768.2606106,0.08946254104375839,0.09711702913045883,1.0162159204483032,0.1467002034187317,-0.07946597784757614,-0.5763413906097412,-5.2233195304870605,-25.588214874267578,-32.842872619628906
1698522768.3770435,0.021092794835567474,0.13912014663219452,0.9928209781646729,-0.2638012170791626,0.6239453554153442,-0.5848934650421143,-5.12916898727417,-24.666358947753906,-32.15374755859375
1698522768.4958508,0.07467333972454071,0.1570867896080017,1.0322998762130737,0.14700563251972198,-0.08954525738954544,-0.3289409577846527,-4.680649757385254,-23.332279205322266,-33.764041900634766
1698522768.6229575,0.0029093509074300528,0.10658594220876694,0.9172748923301697,-0.14101731777191162,0.2210797220468521,-0.12216304242610931,-4.765278339385986,-21.553197860717773,-33.35600662231445
1698522768.7135525,-0.017031658440828323,0.12892286479473114,0.9033842086791992,-0.002311399905011058,0.04018750414252281,-0.009599745273590088,-4.889289379119873,-20.580257415771484,-33.513648986816406
1698522768.821069,-0.061462074518203735,0.1442187875509262,0.8851069808006287,-0.25475239753723145,0.023475587368011475,0.27152368426322937,-5.956771373748779,-19.8408145904541,-32.41976547241211
1698522768.9437804,-0.03727218508720398,0.19374847412109375,0.9548042416572571,-0.1857246309518814,0.20062650740146637,0.4465365707874298,-6.842894554138184,-20.367633819580078,-32.04441452026367
1698522769.0708117,0.011394958011806011,0.1840367615222931,1.0449721813201904,-0.1356336772441864,0.13740195333957672,0.6808033585548401,-8.06977653503418,-22.34632682800293,-31.26859474182129
1698522769.1883514,-0.041468389332294464,0.06191210821270943,1.1380642652511597,-0.07332541793584824,-0.2404182106256485,0.45539411902427673,-10.037267684936523,-23.933286666870117,-31.299177169799805
1698522769.2964563,-0.07084183394908905,-0.06947305798530579,0.9372580647468567,-0.06385701149702072,-0.24225080013275146,0.1637059599161148,-10.466750144958496,-26.20253562927246,-31.310651779174805
1698522769.369869,-0.05356333404779434,-0.09914384037256241,0.9467622637748718,-0.08507522940635681,0.09367960691452026,-0.13036653399467468,-10.345129013061523,-26.861984252929688,-30.722488403320312
1698522769.496379,-0.07602537423372269,-0.034254077821969986,0.8834010362625122,-0.003524720435962081,0.19599954783916473,-0.19145305454730988,-10.19759750366211,-27.191980361938477,-30.73828887939453
1698522769.624212,-0.11724693328142166,0.01918061450123787,0.9499303102493286,0.16980721056461334,-0.05143790319561958,0.033986132591962814,-9.694056510925293,-27.952762603759766,-30.6845760345459
1698522769.7516937,-0.06886714696884155,0.022579709067940712,1.0325435400009155,0.3243561089038849,0.034999530762434006,0.2367933988571167,-10.56178092956543,-28.01814842224121,-30.324697494506836
1698522769.9006495,0.10061505436897278,-0.03811369463801384,1.1192996501922607,0.025948448106646538,-0.1161896213889122,-0.0026657823473215103,-10.599088668823242,-27.859697341918945,-30.765743255615234
1698522770.0265336,0.020607901737093925,0.035204920917749405,0.8963170051574707,-0.01484069786965847,0.18861883878707886,-0.13522237539291382,-9.931147575378418,-27.86476707458496,-31.705039978027344
1698522770.1608272,-0.01456330344080925,0.1459183394908905,0.841728925704956,-0.09807448089122772,0.12869220972061157,-0.07349046319723129,-10.735559463500977,-28.069473266601562,-31.285615921020508
1698522770.279915,-0.007898740470409393,0.1481034755706787,0.9350647926330566,-0.10427886992692947,-0.012319209985435009,0.1597958356142044,-11.082992553710938,-28.86284828186035,-32.33898162841797
1698522770.3966098,0.029820848256349564,0.11265575140714645,1.0535014867782593,-0.010440821759402752,0.07238718122243881,0.07845358550548553,-11.453454971313477,-29.840347290039062,-33.402809143066406
1698522770.5084856,-0.044924091547727585,0.04880130663514137,1.160728096961975,-0.18720068037509918,-0.0768333300948143,-0.18573464453220367,-11.867154121398926,-30.655607223510742,-33.01833724975586
1698522770.6324952,-0.0659051164984703,-0.07863964140415192,0.9818546175956726,0.35646942257881165,-0.1886216700077057,-0.18787267804145813,-11.517267227172852,-31.914207458496094,-34.45003890991211
1698522770.7465408,-0.07207600772380829,-0.059582795947790146,0.868535578250885,0.10906897485256195,0.05877875164151192,-0.2938578128814697,-11.976484298706055,-32.05794143676758,-34.382991790771484
1698522770.8768048,-0.09552539139986038,-0.00844290666282177,0.8836447596549988,-0.0903790220618248,-0.042545024305582047,0.16666069626808167,-12.25251293182373,-32.90228271484375,-36.02466583251953
1698522771.010266,-0.10416464507579803,0.062640480697155,1.0050058364868164,0.03446286544203758,0.14842373132705688,0.1632128804922104,-12.508820533752441,-33.84669876098633,-36.1971321105957
1698522771.1334713,-0.10465831309556961,0.05681345984339714,1.079089641571045,0.042892638593912125,-0.14746320247650146,-0.08157142996788025,-13.873037338256836,-35.30261993408203,-36.786197662353516
1698522771.2660277,0.001939567388035357,-0.007478002924472094,1.000375509262085,-0.25765305757522583,0.011667203158140182,-0.21107487380504608,-15.149523735046387,-36.51620864868164,-36.28717803955078
1698522771.4033146,0.012364741414785385,-0.07381512224674225,0.8227205872535706,-0.32148846983909607,0.08100041002035141,-0.18144790828227997,-16.038297653198242,-38.015464782714844,-36.3443717956543
1698522771.5709355,-0.03356964886188507,-0.01905684731900692,0.923611044883728,-0.18129491806030273,-0.15784791111946106,0.1795734465122223,-15.977680206298828,-40.267154693603516,-37.14208221435547
1698522771.696615,0.09722080826759338,-0.007719228509813547,0.9859974384307861,-0.1473918855190277,0.1524716317653656,0.3918491303920746,-17.009672164916992,-41.651763916015625,-38.37802505493164
1698522771.781653,0.018668334931135178,-0.04462679103016853,0.9708882570266724,-0.08386190235614777,0.01227806881070137,0.5002776980400085,-17.348562240600586,-43.00636291503906,-39.36280059814453
1698522771.9234724,-0.11601275950670242,-0.1896035522222519,1.0422914028167725,-0.20175889134407043,-0.5915622115135193,0.20706239342689514,-19.157249450683594,-44.606605529785156,-39.824363708496094
1698522772.031731,-0.17821533977985382,-0.21252001821994781,0.9426194429397583,-0.12204097956418991,-0.023457547649741173,-0.1900000125169754,-20.279212951660156,-46.21291732788086,-40.28877258300781
1698522772.1750937,-0.07059499621391296,-0.05499950423836708,0.8870565295219421,0.05969143286347389,0.24715575575828552,-0.3164491355419159,-21.15163230895996,-47.016448974609375,-41.07942199707031
1698522772.3221483,-0.04813295230269432,-0.12133662402629852,0.9297034740447998,0.044419802725315094,-0.019181491807103157,-0.3558499217033386,-21.481351852416992,-47.8572883605957,-41.59357833862305
1698522772.4398906,-0.08441779017448425,-0.10831042379140854,0.974299967288971,0.2640210688114166,-0.04187435656785965,-0.06261372566223145,-21.70163917541504,-48.0052375793457,-41.43629455566406
1698522772.5341299,-0.06195574998855591,-0.12374889105558395,1.0654425621032715,0.25484567880630493,-0.16636717319488525,0.11015847325325012,-22.84228515625,-48.67335510253906,-42.43408203125
1698522772.6571708,0.0768553614616394,-0.17392387986183167,1.1270979642868042,0.032185301184654236,0.08958537131547928,-0.16839608550071716,-23.73103904724121,-48.70273208618164,-41.68386459350586
1698522772.7743406,-0.017772166058421135,-0.19129213690757751,0.9338463544845581,0.14672252535820007,-0.07168304920196533,-0.3235558271408081,-24.781543731689453,-49.302547454833984,-40.827884674072266
1698522772.9093134,0.0058187018148601055,-0.1686169058084488,0.9457874298095703,0.14427906274795532,0.07400830835103989,-0.1558733433485031,-25.182567596435547,-50.334964752197266,-40.622013092041016
1698522773.0867062,-0.013082289136946201,-0.03618388622999191,0.9167875647544861,-0.13671894371509552,-0.028922483325004578,0.36580559611320496,-26.143945693969727,-50.07969665527344,-39.406131744384766
1698522773.2221122,0.03539710119366646,-0.0,0.9638210535049438,-0.06799659878015518,0.1189069002866745,0.513634979724884,-27.455570220947266,-50.4111328125,-39.947181701660156
1698522773.339015,0.0033942428417503834,0.0609409362077713,0.9835605025291443,0.012026750482618809,0.08469845354557037,0.4638494551181793,-29.54718589782715,-51.05656051635742,-39.79656219482422
1698522773.4592507,-0.038506362587213516,-0.1341215968132019,1.1541482210159302,-0.03562074154615402,-0.2564697861671448,0.27051061391830444,-31.27021598815918,-51.69077682495117,-39.46440887451172
1698522773.5893245,-0.16266469657421112,-0.239296093583107,0.9628462195396423,0.1256476789712906,-0.09397963434457779,-0.13907454907894135,-32.4860954284668,-51.746009826660156,-38.35409927368164
1698522773.7425346,-0.12070263177156448,-0.08129312843084335,0.8132163882255554,0.0887296199798584,0.08321536332368851,0.014193957671523094,-33.7831916809082,-51.38032150268555,-36.57416534423828
1698522773.882266,-0.0718291699886322,0.0012139629106968641,0.9365270137786865,0.007631273008882999,0.020275862887501717,-0.059771716594696045,-34.78684616088867,-51.46678161621094,-35.22642135620117
1698522774.0133924,-0.09799375385046005,-0.006030647549778223,1.0318124294281006,0.19737687706947327,0.020733322948217392,-0.04778440669178963,-35.37125015258789,-51.501747131347656,-35.02247619628906
1698522774.1389303,0.014789201319217682,-0.012543746270239353,1.0985853672027588,-0.14928914606571198,-0.1112135648727417,-0.28510555624961853,-35.57139205932617,-50.834659576416016,-33.26411056518555
1698522774.2876203,0.0014546754537150264,-0.1700642704963684,0.9959890246391296,-0.107139453291893,0.28157275915145874,-0.5664089918136597,-35.46574401855469,-51.1168212890625,-31.750967025756836
1698522774.4685194,0.01600143127143383,-0.013508650474250317,0.8734095096588135,-0.12027305364608765,0.09831321239471436,0.16052064299583435,-34.88283157348633,-49.764381408691406,-29.720659255981445
1698522774.5870762,0.014789201319217682,-0.043420661240816116,0.9613840579986572,-0.33713021874427795,0.15512368083000183,0.5438385605812073,-35.00581741333008,-49.79457092285156,-29.050018310546875
1698522774.6890647,0.04024602472782135,-0.050416212528944016,1.01719069480896,-0.18594105541706085,0.3939719796180725,0.6510454416275024,-36.2467155456543,-49.6186408996582,-28.788318634033203
1698522774.815112,-0.1300823837518692,-0.14425307512283325,1.0810391902923584,-0.1929660141468048,-0.3076067566871643,0.23565706610679626,-38.04800796508789,-49.198753356933594,-29.375139236450195
1698522774.939284,-0.2895382046699524,-0.24315570294857025,0.8831574320793152,-0.07567989081144333,-0.5876884460449219,-0.21424518525600433,-38.4207878112793,-48.639312744140625,-28.553770065307617
1698522775.0933633,-0.1589621603488922,-0.1541433483362198,0.8480650186538696,0.008924946188926697,0.1719224750995636,-0.29885002970695496,-37.23651885986328,-49.02753448486328,-27.750228881835938
1698522775.2402575,-0.11872794479131699,-0.06416608393192291,0.9453001022338867,0.08681026101112366,-0.04737815260887146,-0.3119836449623108,-36.266239166259766,-48.717689514160156,-26.887025833129883
1698522775.3330512,-0.12218364328145981,-0.16741076111793518,0.9660142660140991,0.12889467179775238,0.007171694189310074,-0.03496933728456497,-35.49555206298828,-48.44070053100586,-26.277698516845703
1698522775.4584944,-0.18290521204471588,-0.12302520871162415,1.0954172611236572,0.03787574544548988,-0.3187249004840851,0.018786802887916565,-35.136714935302734,-47.403011322021484,-25.02098846435547
1698522775.561986,0.03903379291296005,-0.24170835316181183,1.1044341325759888,0.08216347545385361,-0.05238766595721245,-0.09147437661886215,-34.177310943603516,-46.950923919677734,-24.636369705200195
1698522775.6697795,-0.07553170621395111,-0.19442807137966156,0.9165438413619995,0.06973053514957428,0.24528346955776215,-0.2385825663805008,-33.109928131103516,-46.908111572265625,-25.105308532714844
1698522775.8222203,-0.04443041607737541,-0.09576668590307236,0.8756027817726135,-0.10321260988712311,0.11173206567764282,-0.05349230766296387,-32.361610412597656,-46.73698425292969,-25.627567291259766
1698522775.9529233,-0.019253181293606758,-0.027017300948500633,0.8877876400947571,-0.13797856867313385,0.015296192839741707,0.021927060559391975,-31.319072723388672,-45.72272491455078,-25.405921936035156
1698522776.068689,0.05891435965895653,-0.03618388622999191,0.9750310778617859,0.02380814403295517,-0.05503953993320465,0.136735737323761,-30.871545791625977,-45.38401412963867,-24.66539764404297
1698522776.2024693,-0.10243679583072662,-0.11192881315946579,1.1112576723098755,-0.18088535964488983,-0.037541575729846954,0.21838800609111786,-29.999679565429688,-44.96867752075195,-24.618139266967773
1698522776.3244913,-0.0797279104590416,-0.26317745447158813,0.9969637989997864,-0.022365819662809372,-0.11756493151187897,-0.1273617297410965,-28.727136611938477,-44.79466247558594,-25.30418586730957
1698522776.4972157,-0.13255074620246887,-0.2474977821111679,0.9550479650497437,-0.009843082167208195,0.23643149435520172,-0.4389030337333679,-26.313199996948242,-43.962989807128906,-25.926063537597656
1698522776.6017485,-0.10441148281097412,-0.17030547559261322,0.8063929080963135,0.0802595391869545,0.0559208057820797,-0.35643622279167175,-24.376800537109375,-42.608699798583984,-26.607189178466797
1698522776.7499297,-0.11946845054626465,-0.16620464622974396,0.9223926067352295,0.15845029056072235,-0.016772158443927765,-0.15393437445163727,-22.610300064086914,-41.2010612487793,-26.771596908569336
1698522776.8778903,-0.10934819281101227,-0.10831042379140854,0.9920898675918579,0.11416255682706833,-0.1612417846918106,0.02046765387058258,-21.060688018798828,-39.1443977355957,-26.13939094543457
1698522777.0155053,0.03200286254286766,-0.24798022210597992,1.0615434646606445,0.10225068777799606,-0.03815244138240814,-0.14813114702701569,-19.701969146728516,-38.21753692626953,-26.30642318725586
1698522777.1647909,-0.04591142758727074,-0.22699356079101562,0.9850226640701294,0.45166561007499695,0.040954604744911194,-0.6588144898414612,-17.54250144958496,-35.88543701171875,-27.67087173461914
1698522777.2801108,0.014546754769980907,-0.0699555054306984,0.9155690670013428,0.46663179993629456,0.07180330157279968,-0.34116458892822266,-16.20664405822754,-32.51911926269531,-27.89727020263672
1698522777.3894541,0.0029093509074300528,-0.014473553746938705,0.9231236577033997,0.39149537682533264,0.20497192442417145,-0.06810780614614487,-15.601639747619629,-29.672815322875977,-27.913692474365234
1698522777.5020816,-0.06170890852808952,0.010197288356721401,0.9445689916610718,0.2115955650806427,0.09348902106285095,0.11515176296234131,-15.291399955749512,-28.0017032623291,-28.46483039855957
1698522777.6288712,-0.11181654781103134,0.03884681314229965,1.0069553852081299,-0.055047109723091125,0.09012925624847412,0.18784473836421967,-15.808013916015625,-26.19321632385254,-28.574623107910156
1698522777.7336955,-0.07874057441949844,-0.13146811723709106,1.0554510354995728,-0.17584070563316345,-0.15847280621528625,-0.03313711658120155,-15.83690357208252,-25.592636108398438,-28.90554428100586
1698522777.8733034,-0.10367096960544586,-0.1343628168106079,0.9267790913581848,-0.2189067006111145,0.3433530032634735,-0.2283085733652115,-15.985743522644043,-25.37367820739746,-28.97330665588379
1698522778.0144844,-0.10021527856588364,-0.1273672729730606,0.9745436906814575,-0.0219026580452919,-0.09616455435752869,-0.18646429479122162,-16.265771865844727,-25.59387969970703,-29.924715042114258
1698522778.1036842,-0.09429121762514114,-0.0699555054306984,0.9962327480316162,0.015054690651595592,-0.15725107491016388,-0.18005020916461945,-15.876179695129395,-25.257488250732422,-29.600589752197266
1698522778.2277732,-0.1377342939376831,-0.03015323542058468,0.9528546929359436,0.06525195389986038,0.06521088629961014,-0.1202675923705101,-16.599750518798828,-25.070598602294922,-29.258121490478516
1698522778.3742743,-0.18216471374034882,0.07429452240467072,0.9794176816940308,0.03562498837709427,0.013898203149437904,-0.11843498796224594,-16.472042083740234,-24.671428680419922,-29.689632415771484
1698522778.488289,-0.20141789317131042,0.07283777743577957,0.9143506288528442,0.0827738344669342,-0.044593445956707,-0.12124927341938019,-16.551294326782227,-24.228900909423828,-29.344558715820312
1698522778.6064863,-0.21672169864177704,0.07138101756572723,0.9574849009513855,0.12762877345085144,-0.03153170645236969,-0.028220782056450844,-16.341339111328125,-23.720788955688477,-30.04178237915039
1698522778.7240357,-0.1261330097913742,0.026707183569669724,1.1300222873687744,-0.03552897274494171,0.03477255254983902,0.06491677463054657,-15.989606857299805,-24.0251407623291,-30.57901382446289
1698522778.8249981,-0.08762665092945099,0.05098643898963928,1.0805517435073853,-0.09943459928035736,0.08357582241296768,0.07520630955696106,-15.974699974060059,-23.622161865234375,-30.8774356842041
1698522778.9739265,-0.0950317233800888,0.0012139629106968641,0.8843758702278137,0.04938323050737381,-0.06737786531448364,0.04961809515953064,-15.94946575164795,-23.80640983581543,-31.354341506958008
1698522779.1168396,-0.08022158592939377,-0.0009649035637266934,0.889493465423584,0.08969426155090332,0.0013218787498772144,0.007042574696242809,-16.1142635345459,-23.7342586517334,-31.24492835998535
1698522779.246747,-0.19376599788665771,0.044431041926145554,0.9518798589706421,0.20543956756591797,-0.16997617483139038,-0.07853531837463379,-17.458396911621094,-23.755155563354492,-31.207584381103516
1698522779.3985062,-0.07874057441949844,0.10003054141998291,1.0749467611312866,0.25644680857658386,-0.0004610670730471611,-0.36442023515701294,-18.17331314086914,-22.760753631591797,-31.266525268554688
1698522779.527047,-0.006170891225337982,0.07453731447458267,0.9728378057479858,0.3221147954463959,-0.022757649421691895,-0.37297236919403076,-18.85829734802246,-22.01693344116211,-32.3493766784668
1698522779.6514657,-0.051341813057661057,0.09905937314033508,0.9167875647544861,-0.05871397629380226,-0.039943892508745193,-0.06113738566637039,-19.843589782714844,-21.556507110595703,-33.278282165527344
1698522779.7765634,-0.10663300007581711,0.09711702913045883,0.7995693683624268,0.05122964084148407,-0.14016416668891907,0.0029967259615659714,-21.34269142150879,-22.15895652770996,-33.867191314697266
1698522779.8835335,-0.14242418110370636,0.04054636135697365,0.9801487326622009,-0.1292591094970703,-0.031381867825984955,0.1951584368944168,-22.779983520507812,-22.8427734375,-34.14545822143555
1698522780.0108483,-0.024930398911237717,-0.023640137165784836,1.1656020879745483,-0.4740925431251526,0.31742218136787415,0.5274691581726074,-25.265607833862305,-24.532167434692383,-35.37092590332031
1698522780.1122673,-0.11749377101659775,-0.020986653864383698,1.0259637832641602,-0.4695110619068146,-0.3664414584636688,0.8261822462081909,-28.071067810058594,-26.413312911987305,-36.8157844543457
1698522780.2232661,0.027153942734003067,-0.03642510995268822,0.8795019388198853,0.010018163360655308,0.0975106954574585,0.3151934742927551,-29.919919967651367,-27.860334396362305,-39.28012466430664
1698522780.3437667,-0.047886114567518234,-0.024363813921809196,0.9009472131729126,-0.013873854652047157,0.11479071527719498,0.06965665519237518,-31.94803237915039,-28.8221435546875,-40.70221710205078
1698522780.4646952,-0.06541144847869873,-0.07333267480134964,0.9309219717979431,0.17719054222106934,-0.12418248504400253,-0.20926779508590698,-34.46680450439453,-29.051944732666016,-42.64166259765625
1698522780.5956132,-0.05800637975335121,-0.046797823160886765,0.9764932990074158,0.046770814806222916,-0.031025536358356476,-0.4554465115070343,-36.73473358154297,-29.395395278930664,-44.23550033569336
1698522780.7024012,-0.016537988558411598,-0.020986653864383698,0.9974511861801147,0.3317394256591797,-0.25948911905288696,-0.7590465545654297,-38.219154357910156,-29.930784225463867,-45.85920715332031
1698522780.8483002,0.007515823468565941,0.16364219784736633,0.9455438256263733,0.02691769227385521,-0.09089033305644989,-0.36259499192237854,-38.31135559082031,-29.31324005126953,-48.03521728515625
1698522780.9703922,0.06958197802305222,0.11435530334711075,0.9818546175956726,0.23339015245437622,-0.26590320467948914,-0.17597563564777374,-37.14977264404297,-28.24846649169922,-49.20479202270508
1698522781.1068246,0.046792060136795044,0.07405173778533936,1.0198713541030884,0.4917861223220825,-0.030109237879514694,-0.2877639830112457,-36.13545608520508,-27.533443450927734,-49.9160270690918
1698522781.2363472,-0.004196206107735634,0.01456755492836237,0.9133757948875427,-0.08151089400053024,-0.15991809964179993,0.39671051502227783,-35.14265060424805,-27.28677749633789,-51.993629455566406
1698522781.3730216,0.05285320803523064,0.03544771298766136,0.9762495756149292,0.058988120406866074,-0.21306337416172028,0.31913062930107117,-34.6259765625,-26.995849609375,-52.83238220214844
1698522781.504008,0.05600500851869583,-0.0016885813092812896,0.9126446843147278,0.3760271668434143,-0.2161177098751068,0.013698017224669456,-34.02640914916992,-27.245546340942383,-53.62998580932617
1698522781.6228602,0.044852495193481445,-0.006030647549778223,0.9613840579986572,0.05740051716566086,0.07567355036735535,-0.12218596041202545,-34.5218620300293,-27.345252990722656,-53.1805419921875
1698522781.7610216,0.06352083384990692,0.03763284906744957,0.9962327480316162,0.09893935173749924,0.27786996960639954,-0.48656708002090454,-34.683040618896484,-28.016016006469727,-53.586429595947266
1698522781.867876,0.03369998186826706,0.12091069668531418,1.100778579711914,0.19453977048397064,-0.0009900359436869621,-0.824375569820404,-34.925132751464844,-29.945926666259766,-52.769798278808594
1698522781.9960227,-0.042208895087242126,0.26974254846572876,1.031325101852417,0.1960669308900833,-0.12316308915615082,-0.40471115708351135,-34.68191909790039,-31.803327560424805,-51.942962646484375
1698522782.1241143,-0.12514567375183105,0.34233754873275757,0.8531826734542847,0.2018701434135437,-0.0434451699256897,0.1536196917295456,-33.54774475097656,-32.84769058227539,-50.20610809326172
1698522782.2249548,-0.10218995809555054,0.3161159157752991,0.8261323571205139,0.20095384120941162,0.18715645372867584,0.13559916615486145,-32.787208557128906,-33.80118179321289,-48.9420166015625
1698522782.36062,-0.04566459357738495,0.27654072642326355,0.8829137086868286,-0.08230248093605042,0.118245430290699,-0.030643226578831673,-31.38457489013672,-34.573524475097656,-48.99774932861328
1698522782.4978201,-0.09750007838010788,0.21317188441753387,0.9672328233718872,-0.25067561864852905,-0.04199705645442009,-0.13859272003173828,-30.68939971923828,-35.1805305480957,-48.08454895019531
1698522782.6229389,0.04848918318748474,0.23283807933330536,1.039610743522644,-0.18073153495788574,-0.3911065459251404,-0.11446356028318405,-29.44076156616211,-36.061771392822266,-47.897403717041016
1698522782.784364,-0.0562785267829895,0.2459488809108734,0.9377454519271851,0.1308097392320633,-0.20693066716194153,-0.03291304409503937,-27.180137634277344,-36.285888671875,-47.86174392700195
1698522782.91271,0.0821891650557518,0.26974254846572876,0.9640647172927856,0.3583570420742035,0.06612609326839447,-0.10010822117328644,-25.317535400390625,-35.95740509033203,-46.95253372192383
1698522783.0197728,0.020850349217653275,0.13523545861244202,0.9311656951904297,0.296965092420578,0.0847574770450592,-0.10316254943609238,-23.30054473876953,-35.231929779052734,-46.975582122802734
1698522783.147482,0.037579119205474854,0.17699578404426575,0.9375017285346985,0.17265400290489197,0.16233736276626587,-0.28672754764556885,-21.755578994750977,-34.56046676635742,-46.693206787109375
1698522783.2851613,-0.012341782450675964,0.25638896226882935,0.999400794506073,0.031849563121795654,0.11560617387294769,-0.772976279258728,-21.117870330810547,-33.62458038330078,-45.5941276550293
1698522783.365552,-0.166860893368721,0.3153875470161438,0.9920898675918579,-0.048479218035936356,-0.3434590697288513,-0.71555495262146,-19.771482467651367,-33.13616943359375,-45.58687210083008
1698522783.4944015,-0.1439051777124405,0.208073228597641,0.8636615872383118,-0.1318623125553131,0.02733614668250084,-0.3343750536441803,-17.810991287231445,-32.41143798828125,-44.5422477722168
1698522783.6123815,-0.14538618922233582,0.20418855547904968,0.8702414631843567,0.044983163475990295,0.2860375642776489,0.29573243856430054,-17.126089096069336,-31.728174209594727,-42.737632751464844
1698522783.727551,-0.18019002676010132,0.23550879955291748,0.7949391603469849,0.022075718268752098,0.11255184561014175,0.28015539050102234,-16.397916793823242,-32.178836822509766,-42.26091384887695
1698522783.8421118,-0.16192418336868286,0.22118403017520905,0.8948547840118408,-0.05667341873049736,0.0824320912361145,0.09316522628068924,-16.26004981994629,-32.22505569458008,-41.469120025634766
1698522783.9734886,-0.12218364328145981,0.2549321949481964,1.036442756652832,-0.29429998993873596,0.13527192175388336,-0.11422352492809296,-15.914048194885254,-32.78154373168945,-41.35587692260742
1698522784.103359,0.021092794835567474,0.3158731460571289,1.1329467296600342,-0.24023842811584473,-0.2978315055370331,0.2978051006793976,-16.0635929107666,-33.84016799926758,-40.4074821472168
1698522784.2531154,-0.11008869856595993,0.2403646558523178,0.9292160868644714,0.2692232131958008,-0.1545836329460144,0.08888916671276093,-15.565326690673828,-34.447933197021484,-39.51456832885742
1698522784.3977232,-0.044183582067489624,0.18039488792419434,0.8846195340156555,0.25670045614242554,0.07937775552272797,0.044906869530677795,-14.918974876403809,-33.81721496582031,-39.82370376586914
1698522784.5609274,-0.008392412215471268,0.2124435007572174,0.9048464298248291,0.12169922888278961,0.07968319952487946,-0.23181508481502533,-14.809873580932617,-32.808753967285156,-39.10495376586914
1698522784.6672132,-0.07479120045900345,0.21098674833774567,0.9411572217941284,0.07527346909046173,-0.055623456835746765,-0.2901526987552643,-14.35392951965332,-32.19203186035156,-38.817623138427734
1698522784.8018634,-0.025917742401361465,0.4506230056285858,1.0664174556732178,-0.1809844970703125,-0.2000930905342102,0.032689567655324936,-14.118120193481445,-31.538354873657227,-38.68598175048828
1698522784.925696,-0.18093052506446838,0.3003344237804413,0.8846195340156555,-0.22710482776165009,-0.17290958762168884,0.5281012654304504,-14.379803657531738,-31.529560089111328,-38.66664505004883
1698522785.0489054,-0.1300823837518692,0.2711993157863617,0.8838884830474854,-0.21000060439109802,0.25683411955833435,0.47006911039352417,-14.6983642578125,-31.91621208190918,-38.502769470214844
1698522785.167313,-0.16636721789836884,0.1806376725435257,0.8370987176895142,-0.32056719064712524,0.0821266621351242,0.3976815640926361,-16.030452728271484,-32.74399185180664,-37.892578125
1698522785.2637143,-0.12391149997711182,0.1867074966430664,0.9148379564285278,-0.3385877311229706,-0.08861018717288971,0.08155878633260727,-17.253206253051758,-33.754234313964844,-36.980445861816406
1698522785.3916976,-0.1261330097913742,0.1995754837989807,0.9972074627876282,-0.36027342081069946,-0.12801098823547363,-0.28068429231643677,-17.575149536132812,-34.898040771484375,-37.1676025390625
1698522785.536093,0.061338815838098526,0.24449211359024048,1.0578880310058594,-0.041707221418619156,-0.4322218596935272,-0.2547225058078766,-18.183626174926758,-36.775028228759766,-37.24333953857422
1698522785.6196175,-0.02739875763654709,0.300819993019104,0.9979385733604431,0.08626904338598251,0.04639103636145592,-0.2031044214963913,-18.572782516479492,-38.041629791259766,-36.08053207397461
1698522785.7450688,-0.06738612800836563,0.2236119657754898,0.9002161026000977,0.2029443085193634,0.05585945025086403,-0.09131608158349991,-16.881811141967773,-36.81464767456055,-35.39550018310547
1698522785.8341992,-0.020487360656261444,0.16971200704574585,0.9496866464614868,0.1230880543589592,-0.33948782086372375,-0.1293489933013916,-17.374361038208008,-36.928462982177734,-34.950260162353516
1698522786.0306928,0.01672876812517643,0.10075891762971878,0.9499303102493286,0.11575767397880554,0.34712469577789307,-0.6290367245674133,-16.822513580322266,-35.579673767089844,-34.562808990478516
1698522786.1869197,-0.05109497904777527,0.06239769235253334,0.9128884077072144,0.40255892276763916,0.00748361274600029,-0.48914864659309387,-16.04755401611328,-32.768009185791016,-33.00752639770508
1698522786.316019,-0.07355701923370361,0.15975750982761383,0.9872159361839294,0.2999335527420044,-0.12537957727909088,-0.41584479808807373,-15.388957977294922,-30.032981872558594,-32.33782958984375
1698522786.4074943,-0.10416464507579803,0.21511422097682953,1.1097954511642456,0.40927842259407043,-0.5511526465415955,0.0728473961353302,-14.737555503845215,-28.833236694335938,-32.529170989990234
1698522786.5095305,-0.233012855052948,0.2806681990623474,0.7812920808792114,-0.21777474880218506,0.17241722345352173,0.19043895602226257,-14.799722671508789,-28.199743270874023,-32.25020980834961
1698522786.6158347,-0.19845585525035858,0.26877138018608093,0.9216614961624146,-0.25381579995155334,0.015424860641360283,0.5777275562286377,-14.790233612060547,-28.46211814880371,-32.45806884765625
1698522786.77907,-0.10959503054618835,0.16655570268630981,0.9058212041854858,-0.36896389722824097,0.158367320895195,0.6989843249320984,-15.112809181213379,-29.77103614807129,-33.23313903808594
1698522786.9180784,-0.18339888751506805,0.16898363828659058,0.9138631820678711,-0.3619389235973358,0.1287403553724289,0.09025705605745316,-15.941472053527832,-31.445186614990234,-33.44208526611328
1698522787.0473733,-0.07676588743925095,0.17408226430416107,1.0227956771850586,-0.25778642296791077,0.028863897547125816,-0.3724733591079712,-16.952899932861328,-32.80611038208008,-33.361698150634766
1698522787.2059228,0.0880078673362732,0.14349040389060974,1.0013504028320312,0.01985182985663414,0.14706632494926453,-0.35017678141593933,-17.20266342163086,-32.824913024902344,-33.9676399230957
1698522787.3507617,-0.16439254581928253,0.20491693913936615,0.9906277060508728,0.17012467980384827,0.0829254686832428,-0.016338925808668137,-17.504837036132812,-31.581588745117188,-33.05553436279297
1698522787.4762673,-0.04837978631258011,0.1481034755706787,0.9080144762992859,0.13102929294109344,0.03680514544248581,-0.15042385458946228,-17.730772018432617,-30.198410034179688,-33.99359130859375
1698522787.5922997,-0.007898740470409393,0.07745083421468735,0.9964764714241028,0.07421883940696716,-0.012980373576283455,-0.19746047258377075,-17.753772735595703,-29.0245361328125,-33.5950813293457
1698522787.7247076,-0.026905084028840065,0.07647965848445892,0.9613840579986572,-0.029017388820648193,0.2142615020275116,-0.5395449995994568,-17.964839935302734,-28.027050018310547,-32.95219039916992
1698522787.8515186,-0.22684195637702942,0.09298955649137497,0.9981822967529297,0.08887960761785507,-0.3455964922904968,-0.3449844419956207,-18.560924530029297,-27.36775016784668,-32.31444549560547
1698522787.9606042,-0.16217102110385895,0.11144179105758667,0.902653157711029,0.25045347213745117,0.11927194893360138,-0.21822988986968994,-18.2450008392334,-26.50857162475586,-31.4102783203125
1698522788.0987523,-0.2154875248670578,0.21827052533626556,0.9099640250205994,0.10109691321849823,0.20051702857017517,0.4057689607143402,-18.919090270996094,-25.712127685546875,-30.5739803314209
1698522788.2195919,-0.21277232468128204,0.12309583276510239,0.8278381824493408,0.006412796676158905,0.14279025793075562,0.5587907433509827,-19.578636169433594,-25.491518020629883,-31.332626342773438
1698522788.3683455,-0.22560778260231018,0.21098674833774567,0.9092329144477844,-0.2251051366329193,-0.0062608555890619755,0.31688806414604187,-20.560510635375977,-25.840852737426758,-30.399433135986328
1698522788.5425503,-0.08836716413497925,0.26804298162460327,1.1054089069366455,-0.2107498049736023,-0.3214673101902008,-0.044744160026311874,-21.58423614501953,-27.0412654876709,-30.618074417114258
1698522788.6704652,-0.0029620276764035225,0.17990930378437042,0.9638210535049438,-0.06353127211332321,0.02825303189456463,0.3920244872570038,-22.187105178833008,-27.82078742980957,-29.382823944091797
1698522788.7957494,0.047034505754709244,0.22725383937358856,0.9155690670013428,0.048867933452129364,-0.14340010285377502,0.3898864686489105,-22.135698318481445,-28.686311721801758,-29.988155364990234
1698522788.929419,0.10013016313314438,0.19884712994098663,1.0232830047607422,-0.13652968406677246,-0.15775543451309204,-0.18738120794296265,-21.726476669311523,-29.607948303222656,-30.37139320373535
1698522789.0390637,0.07006686925888062,0.12625212967395782,0.9496866464614868,-0.008247969672083855,-0.1244632825255394,-0.5691719651222229,-21.283109664916992,-29.888755798339844,-31.196147918701172
1698522789.1532845,0.0007273377268575132,0.1179971918463707,0.904358983039856,-0.05589545890688896,-0.08231358230113983,-0.9512681365013123,-21.320226669311523,-29.650197982788086,-31.04497528076172
1698522789.2734218,-0.2137596756219864,0.15757237374782562,0.991358757019043,0.08460354804992676,-0.2906186282634735,-0.7273860573768616,-20.887807846069336,-28.482343673706055,-31.76591682434082
1698522789.393661,-0.2349875420331955,0.27532678842544556,0.9594345092773438,-0.10109948366880417,0.1336272805929184,-0.3972133994102478,-20.496814727783203,-27.379287719726562,-32.2579460144043
1698522789.4980948,-0.13427859544754028,0.2639155387878418,0.9184934496879578,-0.074526846408844,-0.13576428592205048,0.3407118022441864,-20.207454681396484,-26.399982452392578,-33.06834411621094
1698522789.636251,-0.15451911091804504,0.2029745876789093,0.8512331247329712,0.02382245659828186,0.02061721496284008,-0.20692887902259827,-20.587961196899414,-25.0548095703125,-32.61911392211914
1698522789.7497308,-0.1476077139377594,0.23550879955291748,0.9947705268859863,0.02229529246687889,-0.2307538390159607,-0.3174954950809479,-20.295366287231445,-24.16425895690918,-32.58576583862305
1698522789.8592322,-0.13674695789813995,0.06749633699655533,0.9811235070228577,-0.13775141537189484,0.010843371972441673,-0.1641683280467987,-20.292261123657227,-24.02691650390625,-32.72028732299805
1698522790.0059993,-0.0738038569688797,0.12382421642541885,0.9557790756225586,0.10903815925121307,0.06215605139732361,-0.03222142159938812,-20.466312408447266,-23.967771530151367,-31.784893035888672
1698522790.1397884,-0.03974054008722305,0.20928719639778137,0.9957453608512878,-0.2624063789844513,0.3279799818992615,-0.05273933708667755,-20.77428436279297,-23.698278427124023,-32.1070671081543
1698522790.2524526,-0.0602278970181942,0.11605485528707504,1.0162159204483032,-0.17535808682441711,0.2103883922100067,0.2691866457462311,-21.830678939819336,-24.102500915527344,-31.461462020874023
1698522790.3750849,0.001212229602970183,0.11654043942689896,0.9626024961471558,0.10258559137582779,0.3737948536872864,0.4955122172832489,-22.39133644104004,-24.011045455932617,-32.03873062133789
1698522790.466311,-0.07849373668432236,0.1811232715845108,0.9955016374588013,-0.1408441960811615,0.2109992653131485,0.5407162308692932,-23.645219802856445,-24.152530670166016,-31.057254791259766
1698522790.61742,-0.2991648018360138,0.06773912906646729,1.040341854095459,-0.3418188691139221,-0.4215516746044159,0.5245282649993896,-23.99408531188965,-25.011472702026367,-31.048372268676758
1698522790.727476,-0.22486726939678192,0.019666196778416634,0.9630899429321289,-0.5543999671936035,-0.21171948313713074,0.36631423234939575,-23.144792556762695,-25.00625228881836,-31.78959083557129
1698522790.8500817,-0.204133078455925,-0.04366188496351242,0.9240984320640564,-0.1756635308265686,-0.1576579213142395,0.5431596636772156,-21.645429611206055,-25.764427185058594,-31.83111572265625
1698522790.9792778,-0.1574811488389969,0.0220941249281168,0.9219051599502563,-0.1298486292362213,0.060115549713373184,0.26552143692970276,-21.04372215270996,-25.3223876953125,-30.936857223510742
1698522791.1177578,-0.050354473292827606,0.05729904770851135,0.9955016374588013,0.2992842197418213,-0.02448928728699684,0.07554236799478531,-19.9270076751709,-24.99055290222168,-30.635427474975586
1698522791.2619674,-0.2019115537405014,0.07405173778533936,0.9969637989997864,0.23972484469413757,-0.15949051082134247,-0.18529708683490753,-18.614707946777344,-23.91794776916504,-31.22400665283203
1698522791.3878574,-0.233012855052948,0.10925665497779846,1.0079301595687866,-0.015616830438375473,-0.2908265292644501,-0.006924442946910858,-17.281219482421875,-23.565046310424805,-30.435991287231445
1698522791.5402074,-0.1397089660167694,0.09177558869123459,0.9794176816940308,0.013093836605548859,0.23299041390419006,0.16442325711250305,-15.976238250732422,-23.781993865966797,-30.69240379333496
1698522791.6694906,-0.13551276922225952,0.17068317532539368,0.9470059275627136,-0.18421563506126404,0.24459685385227203,0.19649368524551392,-15.411014556884766,-24.62217903137207,-30.889436721801758
1698522791.8006496,-0.11996212601661682,0.15951472520828247,0.9048464298248291,-0.029055865481495857,0.14716383814811707,0.21665224432945251,-15.890389442443848,-25.258464813232422,-30.637460708618164
1698522791.9401524,-0.18981662392616272,0.18136605620384216,0.8860816955566406,-0.013478802517056465,-0.008301358669996262,0.2529987096786499,-16.47226333618164,-26.164257049560547,-30.456974029541016
1698522792.1194975,-0.25572171807289124,-0.08008699864149094,1.047896385192871,-0.09899993985891342,-0.6142796874046326,0.13571259379386902,-16.458383560180664,-27.359359741210938,-31.140926361083984
1698522792.2625906,-0.2994116246700287,-0.05499950423836708,0.9567538499832153,-0.11182810366153717,0.11234451830387115,-0.03716227412223816,-15.706043243408203,-28.645709991455078,-31.563777923583984
1698522792.3955338,-0.2270888090133667,0.014810346998274326,0.9372580647468567,-0.04767888784408569,0.19476860761642456,-0.29541876912117004,-16.05190086364746,-29.72821044921875,-31.45208168029785
1698522792.5418952,-0.17722800374031067,0.03569050878286362,0.9089892506599426,-3.139860928058624e-05,0.11902133375406265,-0.3491749167442322,-16.291526794433594,-30.176652908325195,-31.633892059326172
1698522792.6517408,-0.19080395996570587,0.08594857156276703,1.0357115268707275,0.27302536368370056,-0.15006482601165771,-0.3833833932876587,-16.014530181884766,-30.120119094848633,-31.73442840576172
1698522792.7757957,-0.21499384939670563,0.09201838076114655,0.9842915534973145,0.07785391807556152,0.057323940098285675,-0.2786199748516083,-15.873411178588867,-30.114276885986328,-31.24090576171875
1698522792.9003065,-0.1824115514755249,0.09323234856128693,0.8795019388198853,-0.250180721282959,0.02372635155916214,-0.15430893003940582,-16.285160064697266,-31.08928871154785,-31.871353149414062
1698522793.0343635,-0.16143052279949188,0.13377870619297028,0.9811235070228577,-0.1585509330034256,0.06434889137744904,0.29650965332984924,-16.420480728149414,-31.99638557434082,-32.29486083984375
1698522793.1445355,-0.137981116771698,-0.020021749660372734,1.0084174871444702,-0.05287124216556549,0.013341641053557396,0.5662066340446472,-17.137374877929688,-33.14993667602539,-32.96156692504883
1698522793.2602706,-0.10984186828136444,-0.07863964140415192,1.0941988229751587,-0.20070062577724457,-0.34737429022789,0.13615749776363373,-16.950878143310547,-34.78736877441406,-33.794891357421875
1698522793.390901,-0.24930399656295776,-0.08274048566818237,0.9431067705154419,-0.07852758467197418,-0.09783583134412766,-0.32443487644195557,-17.314973831176758,-36.598018646240234,-35.31837844848633
1698522793.5262594,-0.23794956505298615,-0.10927533358335495,0.8436784744262695,-0.14022496342658997,0.08756177127361298,-0.10543970763683319,-17.512052536010742,-38.31739807128906,-35.83827209472656
1698522793.6606727,-0.2352343648672104,-0.07912209630012512,0.8139474987983704,0.03996283560991287,0.020591527223587036,0.048573870211839676,-18.028675079345703,-39.628475189208984,-36.56157684326172
1698522793.7706556,-0.1535317748785019,-0.08322293311357498,0.9947705268859863,0.36006730794906616,-0.1344035565853119,-0.0059447381645441055,-19.027795791625977,-40.58537292480469,-36.394527435302734
1698522793.9474225,-0.03431015461683273,-0.1541433483362198,1.0829887390136719,-0.027832118794322014,-0.4462502598762512,-0.2958002984523773,-18.799345016479492,-41.276153564453125,-37.22517395019531
1698522794.0507689,-0.10144944489002228,-0.09070093929767609,0.9735689163208008,-0.1625279039144516,-0.061405159533023834,-0.2011161893606186,-18.108489990234375,-41.419193267822266,-37.464054107666016
1698522794.1723108,-0.06393042951822281,-0.023398911580443382,0.8626868724822998,-0.16558222472667694,0.1285739243030548,-0.08535721898078918,-17.7703857421875,-41.9403190612793,-37.230812072753906
1698522794.3172417,-0.06837347894906998,0.017966650426387787,0.958459734916687,-0.12676341831684113,0.023710668087005615,0.05211293697357178,-17.823623657226562,-42.99256134033203,-38.3482666015625
1698522794.476346,-0.145879864692688,-0.17199406027793884,1.0598376989364624,-0.01507759653031826,0.11333265900611877,0.3253410756587982,-19.388879776000977,-43.97671127319336,-39.066986083984375
1698522794.6051123,-0.1086076870560646,-0.1763361245393753,1.0486276149749756,-0.3702957332134247,-0.5161639451980591,0.3528299927711487,-20.904584884643555,-45.55751037597656,-39.913597106933594
1698522794.7119164,-0.25127869844436646,-0.16596341133117676,0.8712162375450134,0.047841522842645645,0.026895226910710335,-0.18778575956821442,-22.95551872253418,-46.33400344848633,-40.25242614746094
1698522794.8782377,-0.21203182637691498,-0.1338803768157959,0.8673170804977417,0.22529788315296173,0.15914756059646606,-0.16640546917915344,-24.149511337280273,-46.735145568847656,-40.48754119873047
1698522795.005553,-0.20635460317134857,-0.10276222974061966,0.9294597506523132,0.5301196575164795,-0.007618659175932407,0.01990843005478382,-25.12427520751953,-47.24278259277344,-40.44406509399414
1698522795.1500077,-0.18191787600517273,-0.058859117329120636,0.9691823720932007,0.008440714329481125,-0.3875768482685089,-0.0066642072051763535,-25.596975326538086,-47.52760696411133,-40.724185943603516
1698522795.2633781,0.037579119205474854,-0.13653385639190674,1.0203588008880615,0.007829848676919937,-0.4688219428062439,-0.4477089047431946,-26.308576583862305,-48.479949951171875,-40.06675338745117
1698522795.4102724,-0.0034556991886347532,-0.11120513826608658,1.0093923807144165,-0.35196977853775024,-0.10810598731040955,-0.15632618963718414,-25.641986846923828,-49.35505676269531,-40.117164611816406
1698522795.5379858,-0.07232284545898438,-0.07429756969213486,0.8870565295219421,-0.2847746014595032,-0.04610317200422287,-0.1031809151172638,-25.4654483795166,-49.966148376464844,-39.86278533935547
1698522795.7039874,0.04921652376651764,-0.10155610740184784,0.9730815291404724,-0.11098343878984451,0.025368062779307365,0.2715849280357361,-25.573486328125,-51.15666198730469,-41.09831619262695
1698522795.8378475,0.001212229602970183,-0.1333979219198227,1.0464341640472412,-0.07188805937767029,-0.09252892434597015,0.3760428726673126,-27.24867057800293,-52.2798957824707,-40.5606689453125
1698522795.9678855,-0.004689877387136221,-0.27861592173576355,1.0934678316116333,-0.31165266036987305,-0.23547139763832092,-0.038429200649261475,-28.08441925048828,-53.279335021972656,-40.49671173095703
1698522796.1084843,-0.06541144847869873,-0.29115962982177734,0.9128884077072144,-0.017215626314282417,0.18205499649047852,-0.3560791015625,-28.9122257232666,-54.52749252319336,-40.55339813232422
1698522796.2419858,-0.0873798206448555,-0.19346316158771515,0.8329558372497559,0.2570628821849823,0.2596348822116852,-0.4510686695575714,-29.88214111328125,-55.281890869140625,-38.57048797607422
1698522796.4008756,-0.09305703639984131,-0.1625862568616867,0.9396950602531433,0.24820531904697418,0.17594635486602783,-0.3560791015625,-30.338634490966797,-54.74110412597656,-37.20048522949219
1698522796.5317707,-0.1377342939376831,-0.12254276126623154,0.9511488080024719,0.05639363452792168,-0.05251725763082504,-0.26841995120048523,-30.413354873657227,-53.89332962036133,-35.8341064453125
1698522796.7043254,0.04994386062026024,-0.19539298117160797,1.1083333492279053,0.013633068650960922,-0.10596796125173569,-0.498410701751709,-28.63665008544922,-53.20970153808594,-35.356895446777344
1698522796.8555872,0.014546754769980907,-0.1896035522222519,0.9333589673042297,0.0008048987947404385,0.2846803367137909,-0.2601732611656189,-27.939472198486328,-52.899696350097656,-33.58018112182617
1698522797.0006907,-0.01727849617600441,-0.1343628168106079,0.8970481157302856,-0.06287208199501038,0.11443090438842773,0.06251663714647293,-28.298463821411133,-52.4718132019043,-33.027767181396484
1698522797.133479,-0.08096209168434143,-0.1823667734861374,0.9604092836380005,0.04238331690430641,0.12042584270238876,0.6284618377685547,-29.525470733642578,-52.58785629272461,-32.2497444152832
1698522797.2615066,-0.26905086636543274,-0.1338803768157959,0.9896529316902161,-0.23220060765743256,-0.47913840413093567,0.24575474858283997,-31.708446502685547,-53.027164459228516,-31.16753387451172
1698522797.3967996,-0.3147154748439789,-0.1830904632806778,0.7890903949737549,-0.015085574239492416,-0.1401558220386505,0.09537864476442337,-32.98892593383789,-52.66514587402344,-29.83919334411621
1698522797.5191863,-0.1495824009180069,-0.22192783653736115,0.9513924717903137,-0.05716140568256378,0.028996750712394714,0.1659039407968521,-33.233367919921875,-51.85356140136719,-29.27143669128418
1698522797.719915,-0.15772797167301178,-0.15245477855205536,0.8668296933174133,0.23719170689582825,-0.09752903133630753,0.026312630623579025,-33.97150802612305,-51.491310119628906,-27.765403747558594
1698522797.8227448,-0.09453805536031723,-0.2113138884305954,1.0193839073181152,0.3358464539051056,0.016091905534267426,0.02661806344985962,-33.45724868774414,-49.88436508178711,-27.30817222595215
1698522797.953046,0.003636688692495227,-0.239778533577919,1.1641398668289185,0.2964456379413605,-0.23436284065246582,-0.33287614583969116,-32.980377197265625,-47.35462951660156,-24.128551483154297
1698522798.0826018,-0.007651905063539743,-0.17850716412067413,0.9630899429321289,0.15655748546123505,0.20210036635398865,-0.39304637908935547,-31.77975082397461,-45.16287612915039,-23.568653106689453
1698522798.2198415,-0.030360786244273186,-0.08997726440429688,0.9850226640701294,0.07254517078399658,0.07918460667133331,-0.13779272139072418,-32.201133728027344,-44.16069030761719,-22.916568756103516
1698522798.3471334,-0.005183548666536808,-0.062236279249191284,0.9131320714950562,-0.053903937339782715,0.14973953366279602,-0.19551949203014374,-32.51763916015625,-42.65426254272461,-22.366064071655273
1698522798.4610822,-0.04591142758727074,-0.07478003203868866,0.8911994099617004,-0.27045565843582153,0.13721680641174316,-0.03883254900574684,-33.05710983276367,-42.01425552368164,-22.321369171142578
1698522798.6073246,-0.34038636088371277,-0.1903272420167923,0.9650395512580872,-0.18798886239528656,-0.49838849902153015,-0.2676015794277191,-33.55253601074219,-41.757225036621094,-21.463502883911133
1698522798.729592,-0.25152552127838135,-0.28561145067214966,0.9981822967529297,-0.046878986060619354,-0.4266118109226227,-0.40779516100883484,-32.161441802978516,-42.36396789550781,-20.992074966430664
1698522798.8683074,-0.19179129600524902,-0.24267324805259705,0.8904682993888855,0.47907599806785583,-0.02924397587776184,-0.014703372493386269,-31.44045639038086,-41.86457443237305,-21.044574737548828
1698522798.991711,-0.04393674433231354,-0.18526148796081543,0.9747873544692993,0.3737017512321472,0.3113133907318115,-0.06021283194422722,-30.976659774780273,-40.37535858154297,-20.945043563842773
1698522799.1228273,-0.05775953829288483,-0.08563519269227982,0.9367707371711731,0.5248908996582031,0.4124116003513336,-0.0458575002849102,-31.67098617553711,-38.21955490112305,-19.73680877685547
1698522799.2384038,-0.13452543318271637,0.022579709067940712,0.9608966708183289,0.18066830933094025,-0.10346410423517227,-0.02783697471022606,-32.3715705871582,-36.41861343383789,-18.86832046508789
1698522799.3926406,-0.18882927298545837,0.009226118214428425,1.0361989736557007,0.050248585641384125,-0.7198271155357361,0.06867973506450653,-31.45341682434082,-35.18740463256836,-17.672143936157227
1698522799.5062058,-0.17377229034900665,0.06288327276706696,0.9838041663169861,0.1379077434539795,0.17967194318771362,-0.010732747614383698,-30.415632247924805,-34.58257293701172,-17.1488094329834
1698522799.624234,-0.1360064446926117,0.09323234856128693,0.9216614961624146,0.09942323714494705,0.33055564761161804,0.14381615817546844,-31.11382293701172,-33.69456481933594,-15.968595504760742
1698522799.7514758,-0.11897478252649307,0.11605485528707504,0.9060648679733276,0.06872913241386414,0.01774720661342144,0.17742057144641876,-31.907878875732422,-33.66630935668945,-16.324167251586914
1698522799.8672996,-0.11625958979129791,0.0313202403485775,1.0381486415863037,0.05425048619508743,-0.12095567584037781,0.1433975100517273,-32.42605209350586,-33.257835388183594,-16.338634490966797
1698522799.9989135,-0.17550013959407806,0.09881658107042313,1.0325435400009155,-0.13344745337963104,-0.03003421425819397,-0.0034564996603876352,-33.045379638671875,-32.94132614135742,-15.731587409973145
1698522800.1175356,-0.229063481092453,0.008254947140812874,1.0393670797348022,-0.0035928338766098022,-0.5020850300788879,-0.07500310987234116,-33.17207336425781,-33.24066925048828,-15.669065475463867
1698522800.2612646,-0.19129763543605804,-0.007719228509813547,0.9199556112289429,0.06390777975320816,0.12680073082447052,-0.3550848066806793,-32.225494384765625,-33.81264877319336,-15.82990837097168
1698522800.3717442,-0.19944319128990173,-0.02388136461377144,0.8665859699249268,0.00740274041891098,-0.022555820643901825,-0.28300270438194275,-31.47112464904785,-34.15184783935547,-15.174967765808105
1698522800.479557,-0.10268362611532211,0.0036418887320905924,0.9438378810882568,0.2651878595352173,-0.29408541321754456,-0.193510964512825,-30.977142333984375,-34.14597702026367,-14.507575035095215
1698522800.6129355,-0.07281651347875595,0.0014567554462701082,0.9089892506599426,0.26030096411705017,-0.22414135932922363,-0.19290010631084442,-30.119909286499023,-33.76328659057617,-13.681057929992676
