timestamp,Accel_x,Accel_y,Accel_z,Gyro_x,Gyro_y,Gyro_z,Mag_x,Mag_y,Mag_z
1696902315.4496071,0.0033942428417503834,0.04734455421566963,0.9781991243362427,0.0014690300449728966,-0.0004633278585970402,-0.0019920319318771362,-2.706080436706543,-8.350996017456055,-5.694091796875
1696902315.5070384,0.00315179699100554,0.04661617428064346,0.9799050092697144,0.00024042557924985886,-0.0013612741604447365,-9.643658995628357e-05,-4.063431262969971,-13.2431640625,-9.483631134033203
1696902315.5751069,0.0041215806268155575,0.04710175842046738,0.9813672304153442,0.0016897106543183327,-0.0013035405427217484,-0.001247938722372055,-4.856441497802734,-16.019804000854492,-11.619991302490234
1696902315.627949,0.003879134776070714,0.04613059014081955,0.9808798432350159,-0.0004461938515305519,-0.0018745874986052513,-0.00028542429208755493,-5.1288628578186035,-17.40216636657715,-13.786847114562988
1696902315.6879058,0.0033942428417503834,0.042245909571647644,0.9699134826660156,0.0004672398790717125,-0.002151929773390293,-0.001152321696281433,-5.35416316986084,-18.00801658630371,-14.00019645690918
1696902315.7349532,0.004848918411880732,0.04783013463020325,0.981610894203186,-0.00047692563384771347,-0.0006291214376688004,-0.0014407448470592499,-5.586483478546143,-18.065656661987305,-13.881481170654297
1696902315.785871,0.0041215806268155575,0.04564500227570534,0.9735689163208008,-0.00046850647777318954,-0.0014739329926669598,-0.0007989145815372467,-5.815692901611328,-18.337234497070312,-13.896797180175781
1696902315.838,0.0026669050566852093,0.045887794345617294,0.9835605025291443,0.0007306830957531929,0.0003457581624388695,-0.0013445951044559479,-5.509230613708496,-18.43143081665039,-14.285856246948242
1696902315.8887432,0.0033942428417503834,0.04613059014081955,0.9806361198425293,0.00010882969945669174,-0.0014529908075928688,-0.000977635383605957,-5.5756683349609375,-18.375896453857422,-14.045459747314453
1696902315.981259,0.003636688692495227,0.04661617428064346,0.9808798432350159,-0.002329411916434765,-0.00022484175860881805,-0.00034336745738983154,-5.710353374481201,-18.208404541015625,-14.601615905761719
1696902316.0344782,0.002424459205940366,0.045887794345617294,0.9806361198425293,-0.001117783598601818,-0.0004991074092686176,-0.0026736482977867126,-5.374460697174072,-18.502151489257812,-15.431234359741211
1696902316.105191,0.003879134776070714,0.04734455421566963,0.9789302349090576,0.0012943493202328682,-0.0016905316151678562,-0.0004989691078662872,-4.800378322601318,-18.611461639404297,-16.15850257873535
1696902316.2075417,0.002424459205940366,0.045159418135881424,0.9813672304153442,1.3840384781360626e-05,-0.0007414054125547409,-0.0004392378032207489,-5.114320755004883,-18.70850944519043,-15.706418991088867
1696902316.269034,0.0029093509074300528,0.04564500227570534,0.9813672304153442,-0.0006072921678423882,0.00022106105461716652,0.0007584132254123688,-5.113746643066406,-18.34265899658203,-14.592729568481445
1696902316.3185828,0.002424459205940366,0.046373382210731506,0.9796612858772278,0.0017799567431211472,0.0005204100161790848,-0.0016564279794692993,-5.240066051483154,-18.329837799072266,-14.799824714660645
1696902316.3802974,0.0016971214208751917,0.04758734628558159,0.9833167791366577,-7.047224789857864e-05,-0.0012922147288918495,0.0005028098821640015,-5.129306316375732,-18.652833938598633,-15.145736694335938
1696902316.4370272,0.0033942428417503834,0.04758734628558159,0.9803923964500427,-9.195879101753235e-05,-0.0006378153339028358,-0.001559283584356308,-5.115627288818359,-18.539953231811523,-15.29478931427002
1696902316.5195775,0.0029093509074300528,0.04127473756670952,0.9969637989997864,0.0014692749828100204,0.0015057413838803768,0.000900566577911377,-4.821732521057129,-18.740446090698242,-15.853350639343262
1696902316.5785549,-0.00024683563970029354,0.04710175842046738,0.9818546175956726,0.0001849709078669548,-0.002377924509346485,-0.0011760257184505463,-5.194579124450684,-18.612531661987305,-15.497257232666016
1696902316.635817,0.0033942428417503834,0.04734455421566963,0.9794176816940308,-0.0001298859715461731,-0.00022312533110380173,-0.0014529265463352203,-4.773628234863281,-18.790895462036133,-16.01119041442871
1696902316.685968,0.0026669050566852093,0.04661617428064346,0.982342004776001,0.0007371604442596436,0.00045355362817645073,0.001016620546579361,-4.785492420196533,-18.841251373291016,-15.846882820129395
1696902316.7528217,0.004848918411880732,0.04613059014081955,0.9808798432350159,0.0022720899432897568,-0.00013462640345096588,-0.0013762041926383972,-5.568131446838379,-18.369354248046875,-14.300485610961914
1696902316.8208296,0.0021820133551955223,0.04540221393108368,0.9813672304153442,-0.0010491395369172096,-0.00045306235551834106,-0.0013382546603679657,-5.863341808319092,-17.94086456298828,-14.073781967163086
1696902316.879475,0.001939567388035357,0.04613059014081955,0.9796612858772278,0.0010952986776828766,-0.00018009264022111893,-0.00012092292308807373,-6.192378044128418,-18.1283016204834,-14.665811538696289
1696902316.9473653,0.0014546754537150264,0.04831572249531746,0.9818546175956726,-0.0007458273321390152,0.00042421789839863777,-0.0007006414234638214,-5.543262958526611,-18.453332901000977,-15.727897644042969
1696902317.0183973,0.0026669050566852093,0.04540221393108368,0.9784428477287292,-0.00018866639584302902,0.0007635420188307762,0.00020496174693107605,-5.195298671722412,-18.54603385925293,-17.213180541992188
1696902317.0866017,0.0029093509074300528,0.04564500227570534,0.982342004776001,0.0012822309508919716,0.0007406594231724739,-0.0007158555090427399,-5.348699569702148,-18.393434524536133,-16.7558650970459
1696902317.1438782,0.0033942428417503834,0.04734455421566963,0.9806361198425293,0.0018444955348968506,0.001639741938561201,0.0011014118790626526,-5.174404144287109,-18.648513793945312,-16.891151428222656
1696902317.1972826,0.001939567388035357,0.04564500227570534,0.981610894203186,0.0003165705129504204,0.0003923256881535053,-0.001320425420999527,-4.972464084625244,-18.590272903442383,-16.96015167236328
1696902317.257545,0.00315179699100554,0.04783013463020325,0.9791739583015442,0.0005508745089173317,8.754804730415344e-05,0.0008018799126148224,-4.910609722137451,-18.381235122680664,-15.576519966125488
1696902317.306598,0.0026669050566852093,0.04710175842046738,0.9806361198425293,-0.0010130088776350021,-0.0020091328769922256,-0.0012699887156486511,-4.801088809967041,-18.593421936035156,-16.090789794921875
1696902317.3597999,0.0041215806268155575,0.045887794345617294,0.9799050092697144,0.002325449138879776,0.00043306825682520866,-0.00035625696182250977,-4.923184871673584,-18.586143493652344,-16.264419555664062
1696902317.4186184,0.002424459205940366,0.04734455421566963,0.9808798432350159,-0.0004526665434241295,-0.0010697944089770317,0.0003072582185268402,-5.109666347503662,-18.387088775634766,-15.379427909851074
1696902317.4719748,0.0016971214208751917,0.046373382210731506,0.9818546175956726,-0.00011469889432191849,-0.0016421675682067871,-2.3584812879562378e-05,-5.582869529724121,-18.197797775268555,-14.728567123413086
1696902317.5209913,0.0016971214208751917,0.04661617428064346,0.9784428477287292,-0.0003794534131884575,0.0005113142542541027,0.001524161547422409,-5.626408576965332,-18.050640106201172,-13.794317245483398
1696902317.5747695,0.00315179699100554,0.04734455421566963,0.9803923964500427,0.001110658049583435,0.0007811319082975388,-0.00028783828020095825,-5.650786399841309,-18.04256248474121,-13.782652854919434
1696902317.6351147,0.003879134776070714,0.045159418135881424,0.9789302349090576,0.001350761391222477,0.00017217453569173813,3.6656856536865234e-05,-5.699562072753906,-18.230300903320312,-13.811751365661621
1696902317.6910653,0.00315179699100554,0.046373382210731506,0.9808798432350159,-0.0004524756222963333,-0.00039717741310596466,0.0006504952907562256,-5.956877708435059,-18.396739959716797,-13.61606502532959
1696902317.7620225,0.0029093509074300528,0.04491662606596947,0.981610894203186,0.00017577316612005234,0.001139150932431221,-0.002059638500213623,-5.9239501953125,-18.81441307067871,-14.366677284240723
1696902317.8172102,0.0026669050566852093,0.04613059014081955,0.9794176816940308,0.0004923390224575996,0.0002819551154971123,-0.0010764747858047485,-5.705606460571289,-19.122859954833984,-15.352435111999512
1696902317.8738565,0.00315179699100554,0.045887794345617294,0.9791739583015442,-0.0007135886698961258,0.0002779867500066757,-0.0010681860148906708,-5.563055515289307,-18.816701889038086,-15.910360336303711
1696902317.9301584,0.0014546754537150264,0.04273149371147156,0.9716193079948425,-0.0021544727496802807,-0.001507224515080452,-0.00014418736100196838,-5.965288162231445,-18.593393325805664,-15.302956581115723
1696902317.9914148,0.009212944656610489,0.04394545406103134,0.967476487159729,-0.0008664801716804504,-0.00025140680372714996,0.0007592365145683289,-5.755244731903076,-18.580093383789062,-15.107148170471191
1696902318.054776,0.0016971214208751917,0.04685896635055542,0.9786865711212158,0.0009731398895382881,9.112991392612457e-05,-0.0007799006998538971,-5.7883219718933105,-18.58250617980957,-14.936666488647461
1696902318.1196358,0.0021820133551955223,0.04613059014081955,0.9806361198425293,-0.001412227749824524,-0.00017852801829576492,-0.0007563754916191101,-6.15784215927124,-18.369998931884766,-14.740018844604492
1696902318.1706834,0.0029093509074300528,0.04685896635055542,0.9796612858772278,-0.0010417439043521881,-0.0010705739259719849,-0.0004734992980957031,-5.942793369293213,-18.436159133911133,-15.352757453918457
1696902318.2463398,0.0026669050566852093,0.04758734628558159,0.981610894203186,-0.00038932915776968,-0.000441879965364933,0.0019574984908103943,-5.657183647155762,-18.295988082885742,-14.972539901733398
1696902318.3290746,0.004364026710391045,0.045159418135881424,0.9781991243362427,0.0008410103619098663,-0.0007456755265593529,-0.0011025890707969666,-5.983768463134766,-18.123355865478516,-15.211247444152832
1696902318.3784332,0.0041215806268155575,0.046373382210731506,0.9781991243362427,-0.00039127934724092484,0.00020228512585163116,-0.00021709129214286804,-6.199710369110107,-18.032249450683594,-14.821215629577637
1696902318.4441183,0.004848918411880732,0.04491662606596947,0.9769806265830994,0.0022504841908812523,0.0016936669126152992,-0.001152224838733673,-6.4058146476745605,-17.968896865844727,-15.124787330627441
1696902318.5176506,0.003879134776070714,0.041517529636621475,0.958459734916687,0.01135872583836317,0.00563820730894804,0.0009985417127609253,-5.911664009094238,-18.49358367919922,-15.579444885253906
1696902318.572177,0.0016971214208751917,0.052928779274225235,0.9840478897094727,0.00540061853826046,0.0001306924968957901,0.0013210736215114594,-5.417632102966309,-18.806411743164062,-15.77578353881836
1696902318.6398249,0.0007273377268575132,0.043459873646497726,0.987459659576416,0.004709254018962383,0.0007290947251021862,-0.0023047178983688354,-5.263428688049316,-18.240493774414062,-14.986343383789062
1696902318.7104404,0.0021820133551955223,0.04904409870505333,0.9791739583015442,0.0009720269590616226,0.0003978656604886055,-0.00012343376874923706,-5.784376621246338,-18.427587509155273,-15.014485359191895
1696902318.770847,0.0041215806268155575,0.04710175842046738,0.9779554605484009,0.0011944472789764404,-0.0005727196112275124,0.00047840923070907593,-5.5136823654174805,-18.87139892578125,-15.878183364868164
1696902318.842689,0.002424459205940366,0.046373382210731506,0.9791739583015442,0.0005648285150527954,0.0009620487689971924,-0.00282379612326622,-5.6358442306518555,-18.63981819152832,-15.205582618713379
1696902318.8988624,0.001939567388035357,0.045887794345617294,0.981610894203186,0.0008474737405776978,0.001880099531263113,0.0017707310616970062,-5.873633861541748,-18.434476852416992,-15.413057327270508
1696902318.9562545,0.001939567388035357,0.045887794345617294,0.9813672304153442,-0.00037555117160081863,0.0018420671112835407,0.0008121579885482788,-5.7255425453186035,-18.443496704101562,-15.518177032470703
1696902319.023533,0.004364026710391045,0.04273149371147156,0.9781991243362427,-0.004000306595116854,-0.0009220084175467491,-0.0015854164958000183,-5.721505641937256,-18.298141479492188,-16.055282592773438
1696902319.098456,0.007030931767076254,0.05098643898963928,0.982342004776001,0.002669859677553177,-0.0009163348004221916,-8.505582809448242e-05,-5.764944076538086,-18.030399322509766,-15.07788372039795
1696902319.1524966,0.00315179699100554,0.04904409870505333,0.9786865711212158,-0.00038114096969366074,0.0009353430941700935,-0.000956416130065918,-5.814455986022949,-17.7808837890625,-15.227849960327148
1696902319.2071154,0.005091364029794931,0.049286894500255585,0.9745436906814575,-0.0009328164160251617,-0.0011833496391773224,-0.001204170286655426,-5.43064546585083,-18.44963836669922,-15.588615417480469
1696902319.2956994,0.0014546754537150264,0.0480729304254055,0.9813672304153442,-0.00027655530720949173,0.0006517092697322369,-0.0008692331612110138,-4.5060343742370605,-18.89028549194336,-16.28423309326172
1696902319.3550234,0.0021820133551955223,0.04734455421566963,0.9789302349090576,-0.0017641708254814148,0.0021108868531882763,0.0012662038207054138,-4.665859222412109,-18.612545013427734,-16.146135330200195
1696902319.4213266,0.0021820133551955223,0.044431041926145554,0.9803923964500427,0.0006960825994610786,0.00029477663338184357,-0.000267956405878067,-4.681929588317871,-18.69403648376465,-16.501359939575195
1696902319.4808233,0.005091364029794931,0.025978805497288704,0.9786865711212158,-0.03801235929131508,-0.0051833512261509895,0.0014723464846611023,-4.533175945281982,-18.68720054626465,-16.72105598449707
1696902319.5372536,0.009455390274524689,0.011168458499014378,0.9920898675918579,0.053268950432538986,0.007342062424868345,0.2540392279624939,-4.631079196929932,-18.709121704101562,-16.618043899536133
1696902319.591243,0.0009697836940176785,0.057784635573625565,0.9774680733680725,0.027448834851384163,0.0021135779097676277,-0.043022166937589645,-4.6780476570129395,-18.6578426361084,-16.383174896240234
1696902319.6595974,0.02424459159374237,0.0019423406338319182,0.9916024804115295,0.014315230771899223,-0.010103726759552956,-0.1819940209388733,-4.991881370544434,-18.559782028198242,-15.603485107421875
1696902319.725669,-0.058746885508298874,-0.0424557588994503,0.9984260201454163,0.1183323934674263,0.04001843184232712,1.4558043479919434,-4.780355930328369,-18.738683700561523,-15.682168006896973
1696902319.7844522,0.1704394668340683,0.1330503225326538,1.1821733713150024,-0.01239276584237814,0.09010938555002213,2.40356183052063,-4.511988639831543,-19.909948348999023,-15.774115562438965
1696902319.845257,0.06982442736625671,0.21390026807785034,1.0025688409805298,0.005322325974702835,0.017721854150295258,-0.4656723439693451,-4.252189636230469,-21.136770248413086,-15.012075424194336
1696902319.8990178,0.22038333117961884,0.42464420199394226,0.9270228147506714,0.036171019077301025,-0.03847774863243103,-0.4247443675994873,-4.561462879180908,-20.704914093017578,-13.090690612792969
1696902319.9579663,-0.05998106300830841,0.008983325213193893,0.9643084406852722,0.020899390801787376,0.05712266266345978,0.8773148655891418,-4.700774669647217,-20.14067268371582,-11.991714477539062
1696902320.0149133,0.037821561098098755,0.13766339421272278,1.0483838319778442,-0.039576269686222076,0.3182675540447235,0.7123812437057495,-5.123725891113281,-20.145843505859375,-11.561485290527344
1696902320.1108158,-0.05998106300830841,-0.11530598253011703,1.1302660703659058,-0.46565476059913635,1.0036582946777344,0.18520456552505493,-5.384629726409912,-20.251298904418945,-11.346362113952637
1696902320.1747766,-0.11206338554620743,-0.25835293531417847,1.1714507341384888,-0.39601612091064453,-0.44164881110191345,0.2841647267341614,-6.031866550445557,-20.570837020874023,-10.72398853302002
1696902320.2297688,-0.15476596355438232,-0.31455856561660767,1.166576862335205,-0.17763181030750275,-0.8142765760421753,0.7038291096687317,-6.547491550445557,-20.833593368530273,-10.640998840332031
1696902320.2995882,-0.0543038435280323,-0.14618289470672607,1.0739719867706299,0.15742777287960052,-0.6814134120941162,0.299130916595459,-6.701535701751709,-20.975317001342773,-11.406437873840332
1696902320.3491404,0.1614689826965332,-0.048245180398225784,0.9470059275627136,0.6934620141983032,-1.754092812538147,0.11892569065093994,-6.578184604644775,-21.119821548461914,-11.284574508666992
1696902320.4005299,-0.01456330344080925,-0.13170933723449707,1.1387953758239746,0.11039114743471146,-0.46089106798171997,-0.6770317554473877,-7.310418605804443,-21.237060546875,-11.284753799438477
1696902320.4531748,0.04145825281739235,-0.057411763817071915,1.085425853729248,-0.41006603837013245,-0.4483683109283447,0.4393244981765747,-9.010429382324219,-21.497716903686523,-11.327940940856934
1696902320.508634,0.1648632138967514,-0.12399011105298996,1.0225520133972168,0.09206519275903702,-0.39736106991767883,1.2670469284057617,-10.484759330749512,-21.60944175720215,-11.096040725708008
1696902320.5625618,0.12946611642837524,-0.005306969862431288,0.850745677947998,0.7802048921585083,0.3955420255661011,0.9512295722961426,-11.754097938537598,-21.689964294433594,-9.922587394714355
1696902320.6272213,0.020365456119179726,0.07526569813489914,0.9255606532096863,0.4317062795162201,0.8799581527709961,1.165643334388733,-13.163960456848145,-21.603866577148438,-9.096473693847656
1696902320.6891222,0.022062579169869423,0.13110800087451935,0.8312499523162842,0.05510783940553665,0.4102027714252472,0.594484269618988,-14.072965621948242,-21.524267196655273,-8.637195587158203
1696902320.743295,0.10085750371217728,0.03496213257312775,0.8612246513366699,0.0728229358792305,0.37721607089042664,0.9438991546630859,-14.705913543701172,-21.716394424438477,-7.75905179977417
1696902320.804571,0.12558698654174805,0.1549016684293747,0.8390482664108276,-0.2759811282157898,0.6389718055725098,0.36571523547172546,-15.680395126342773,-21.13018226623535,-7.454780101776123
1696902320.8577168,0.11685892939567566,0.10634315013885498,0.9660142660140991,-0.18648935854434967,0.9709770679473877,0.34097519516944885,-17.34699058532715,-20.611570358276367,-5.778293609619141
1696902320.9199953,-0.07454437017440796,0.1583007574081421,0.9721066951751709,-0.2310825139284134,0.7208277583122253,-0.18589606881141663,-18.550148010253906,-21.1507511138916,-5.398486614227295
1696902320.9737792,0.062066156417131424,0.1342642903327942,1.0006192922592163,0.1378800868988037,-0.016486600041389465,0.07280535995960236,-19.130691528320312,-21.56475257873535,-5.51809024810791
1696902321.0239108,-0.04393674433231354,0.05827021971344948,0.9589471220970154,0.0172341987490654,-0.28587815165519714,0.04623272269964218,-20.136123657226562,-21.60906410217285,-5.5163960456848145
1696902321.0774884,0.03321509063243866,0.10925665497779846,0.9109388589859009,-0.10799317806959152,-0.6020009517669678,-0.20391657948493958,-20.356687545776367,-21.67665672302246,-5.5695977210998535
1696902321.1318698,-0.023943057283759117,-0.009407809935510159,0.9528546929359436,0.20965676009655,-0.6044443845748901,0.13938966393470764,-20.305566787719727,-21.55525779724121,-5.571527004241943
1696902321.1874363,0.020607901737093925,0.1369350105524063,0.8551322221755981,0.14246158301830292,-0.2880162000656128,0.03309911862015724,-20.83870506286621,-21.23011589050293,-4.532304286956787
1696902321.2571502,0.05915680527687073,0.022579709067940712,0.837342381477356,-0.08111510425806046,0.6438587307929993,0.35563597083091736,-21.05769920349121,-20.99950408935547,-4.0005388259887695
1696902321.3159933,-0.0562785267829895,0.05098643898963928,0.9253169298171997,0.2844877541065216,0.7971858978271484,0.1161767989397049,-22.317106246948242,-20.610395431518555,-3.4717979431152344
1696902321.373204,-0.08614564687013626,0.07793641835451126,0.8748716711997986,0.25089016556739807,0.5849102139472961,0.20017077028751373,-23.64121437072754,-20.429059982299805,-3.1203806400299072
1696902321.4365804,-0.08886083215475082,0.10561476647853851,0.9260479807853699,0.3559589684009552,0.4587665796279907,-0.20116770267486572,-24.864990234375,-20.01884651184082,-3.715930223464966
1696902321.4894235,-0.12588618695735931,0.1493174284696579,1.0132914781570435,0.3156418800354004,0.16921642422676086,0.07280535995960236,-25.299354553222656,-19.591951370239258,-4.486488342285156
1696902321.5585907,-0.11625958979129791,0.14956021308898926,1.059106469154358,-0.04201973229646683,-0.07299163192510605,0.0553957000374794,-25.46019172668457,-19.243419647216797,-4.555429458618164
1696902321.6077135,-0.12687352299690247,0.15563005208969116,1.002325177192688,0.006585858762264252,-0.15092036128044128,0.08605733513832092,-25.89225959777832,-19.100311279296875,-3.9183878898620605
1696902321.6558611,-0.12884820997714996,0.11119899898767471,0.9348210692405701,-0.3083151578903198,-0.5968520045280457,0.23052698373794556,-25.717700958251953,-19.179162979125977,-5.4466633796691895
1696902321.7088203,-0.03653167560696602,0.028892317786812782,0.955535352230072,-0.06580167263746262,-0.5675304532051086,0.48373061418533325,-25.398792266845703,-19.826004028320312,-6.545643329620361
1696902321.7777069,-0.0074050696566700935,0.0922611802816391,0.9379891753196716,-0.0361747071146965,-0.318297415971756,0.614761233329773,-25.29918670654297,-19.731473922729492,-6.63403844833374
1696902321.8370197,0.0058187018148601055,0.08789090812206268,0.920686662197113,-0.10373467206954956,-0.14478027820587158,0.10653284192085266,-25.95471954345703,-19.448862075805664,-5.702127456665039
1696902321.9006655,-0.019253181293606758,0.04710175842046738,0.9513924717903137,-0.17398416996002197,0.154849112033844,0.23664714395999908,-25.510698318481445,-19.794103622436523,-5.281539440155029
1696902321.949376,-0.02739875763654709,0.07599407434463501,0.9245858788490295,-0.1026567742228508,0.048524826765060425,0.07662884891033173,-25.676769256591797,-19.75026512145996,-5.375287055969238
1696902322.0143573,-0.026905084028840065,0.10051612555980682,0.9455438256263733,-0.13018496334552765,0.09329257160425186,-0.1605156660079956,-26.15253257751465,-19.59476089477539,-5.358516693115234
1696902322.067341,-0.06862030923366547,0.021608538925647736,0.9947705268859863,0.002067349851131439,0.11345112323760986,-0.22587823867797852,-26.151920318603516,-20.251815795898438,-6.269263744354248
1696902322.1256545,-0.08046842366456985,0.03617609292268753,0.9550479650497437,0.25893619656562805,-0.07255734503269196,-0.17731446027755737,-26.133113861083984,-20.13897705078125,-5.37308406829834
1696902322.1896932,-0.08318360894918442,0.03933239355683327,0.9599218368530273,0.37041908502578735,-0.095464788377285,-0.3428589403629303,-26.475332260131836,-19.771940231323242,-5.439572334289551
1696902322.2390625,-0.0678798034787178,0.06555400043725967,1.0037872791290283,0.2971152663230896,-0.009332790970802307,-0.21274462342262268,-26.26500129699707,-20.099266052246094,-6.349524021148682
1696902322.2873666,-0.043196238577365875,0.07186660170555115,1.026938557624817,0.16883356869220734,0.047172240912914276,-0.09790197014808655,-26.071714401245117,-20.153417587280273,-7.158653736114502
1696902322.3395681,-0.05208232253789902,0.10440080612897873,1.0335183143615723,0.3270476758480072,-0.03682173043489456,-0.19380781054496765,-25.586780548095703,-20.223501205444336,-7.570423603057861
1696902322.3909104,-0.00814557634294033,0.1845223605632782,1.1178374290466309,-0.4563870131969452,-0.1510535329580307,-0.09454222023487091,-25.891925811767578,-20.15247917175293,-7.462480068206787
1696902322.442345,0.04970141127705574,-0.046797823160886765,1.0079301595687866,0.05918324738740921,-0.012387117370963097,-0.13974624872207642,-25.964195251464844,-20.26052474975586,-7.463864326477051
1696902322.49894,0.00048489184700883925,0.15611563622951508,0.9163001775741577,0.28673055768013,-0.1757935732603073,-0.7707700729370117,-26.26735496520996,-20.287599563598633,-7.258098125457764
1696902322.5602582,-0.006170891225337982,0.11702601611614227,0.9540731310844421,0.07903636991977692,-0.0035295719280838966,-0.39508792757987976,-26.103803634643555,-20.983505249023438,-7.215745449066162
1696902322.6221824,0.007273377384990454,0.06701074540615082,1.0018377304077148,-0.32169121503829956,0.26066964864730835,0.29702240228652954,-25.701757431030273,-20.656169891357422,-6.128850936889648
1696902322.6742315,-0.026164578273892403,0.03399096056818962,0.9462748765945435,0.6068239212036133,-0.10218431055545807,0.021216746419668198,-26.360231399536133,-20.69463539123535,-6.019575119018555
1696902322.728628,-0.023449387401342392,0.16339941322803497,0.9219051599502563,0.05399089306592941,-0.32056865096092224,-0.3382774591445923,-25.903366088867188,-20.732685089111328,-8.184408187866211
1696902322.7957404,-0.04196205735206604,0.09760261327028275,0.8738968968391418,0.10133294761180878,0.24020566046237946,-0.049643624573946,-26.236587524414062,-20.57162857055664,-7.223453044891357
1696902322.8560753,-0.10910135507583618,0.12212466448545456,0.959190845489502,-0.04211139306426048,0.16349615156650543,-0.018779341131448746,-26.237943649291992,-20.763338088989258,-7.283168315887451
1696902322.916253,-0.09034185111522675,0.10464359819889069,1.0181653499603271,-0.16228307783603668,0.20398372411727905,0.15489880740642548,-26.090211868286133,-21.296430587768555,-9.055266380310059
1696902322.9694598,-0.062449418008327484,0.07040984183549881,1.0481401681900024,-0.0049852896481752396,0.1768002212047577,0.37236684560775757,-26.241756439208984,-21.267711639404297,-8.415525436401367
1696902323.03215,-0.021474702283740044,0.10245846956968307,1.054476261138916,-0.03613941743969917,-0.16131368279457092,0.21079297363758087,-26.19487190246582,-21.189044952392578,-8.432512283325195
1696902323.0976841,0.013576971367001534,0.11435530334711075,0.9952579140663147,-0.04490024968981743,-0.06652598083019257,0.1493649184703827,-25.735254287719727,-21.084733963012695,-8.955984115600586
1696902323.1535602,0.011152512393891811,0.09129000455141068,0.9657706022262573,0.012163084000349045,0.17096908390522003,-0.0038890913128852844,-25.206941604614258,-21.458629608154297,-9.245019912719727
1696902323.2211854,-0.009626590646803379,0.09031883627176285,0.9596782326698303,-0.09164460003376007,0.15488247573375702,0.03641637787222862,-25.114044189453125,-21.611886978149414,-9.387056350708008
1696902323.297875,-0.028879769146442413,0.08983325213193893,0.9489555358886719,-0.19637317955493927,-0.04169749096035957,0.02265886217355728,-24.43121910095215,-22.19233512878418,-9.391229629516602
1696902323.3771245,-0.04615826532244682,0.11411251127719879,0.903627872467041,0.270022451877594,-0.13943593204021454,-0.04331458359956741,-23.944005966186523,-22.349191665649414,-9.423518180847168
1696902323.4351315,-0.059734225273132324,0.08376343548297882,0.9294597506523132,0.11119747906923294,-0.19319206476211548,0.049231499433517456,-23.840702056884766,-22.567913055419922,-9.986083984375
1696902323.4916954,-0.05775953829288483,0.08789090812206268,0.9406698346138,0.1945805847644806,-0.11072526127099991,0.1176484078168869,-23.92026138305664,-22.037870407104492,-8.296070098876953
1696902323.555841,-0.0757785439491272,0.11945395171642303,0.9699134826660156,0.017124226316809654,0.03710412606596947,-0.19389286637306213,-23.623449325561523,-22.04707145690918,-8.589595794677734
1696902323.6116824,-0.07405069470405579,0.10852827876806259,1.0128040313720703,0.009929540567100048,0.17611970007419586,-0.04378780350089073,-23.460918426513672,-22.05230140686035,-8.694663047790527
1696902323.6930473,-0.044183582067489624,0.05875580012798309,1.0415602922439575,0.17944464087486267,0.19414022564888,-0.08807553350925446,-23.22991943359375,-22.103151321411133,-8.301617622375488
1696902323.784387,-0.10268362611532211,0.19253450632095337,1.0271822214126587,-0.11254893988370895,-0.18795599043369293,-0.19803127646446228,-22.189456939697266,-22.585121154785156,-9.604626655578613
1696902323.8452091,-0.02295571379363537,0.10148729383945465,0.9223926067352295,0.5453529357910156,0.019127335399389267,-0.11800792813301086,-21.427383422851562,-23.083585739135742,-9.563793182373047
1696902323.9034264,-0.02468356490135193,0.24813401699066162,0.9141069054603577,-0.25518596172332764,-0.20719824731349945,-0.3675463795661926,-21.27433967590332,-23.060585021972656,-9.465578079223633
1696902323.9613912,-0.02468356490135193,0.1437332034111023,0.9440816044807434,-0.2160598486661911,-0.05705692246556282,0.209628164768219,-20.11272430419922,-22.997873306274414,-9.758806228637695
1696902324.0185637,-0.010613933205604553,0.09153279662132263,0.953342080116272,-0.22216850519180298,-0.17831367254257202,0.2847645878791809,-19.025617599487305,-23.217884063720703,-9.640206336975098
1696902324.0798085,-0.0007405069191008806,0.11168459057807922,0.9375017285346985,-0.1907089501619339,-0.1700669825077057,0.07432152330875397,-18.68909454345703,-23.2585506439209,-9.516610145568848
1696902324.1471906,-0.04714560881257057,0.18015208840370178,0.9635773301124573,-0.07861516624689102,0.033045701682567596,-0.046324364840984344,-18.46063804626465,-22.91037940979004,-9.130414962768555
1696902324.216047,-0.07059499621391296,0.10949944704771042,0.9835605025291443,-0.01699802652001381,0.10566949844360352,-0.040636464953422546,-18.191980361938477,-22.995346069335938,-9.007913589477539
1696902324.328472,-0.06096840649843216,0.13353590667247772,0.9996444582939148,-0.1272301822900772,0.28947851061820984,0.08276881277561188,-17.218698501586914,-23.234529495239258,-9.072803497314453
1696902324.3780634,-0.05553802102804184,0.0682247132062912,1.006711721420288,-0.16632555425167084,0.05032476782798767,0.25625455379486084,-16.86297035217285,-23.873788833618164,-9.19357967376709
1696902324.4332907,-0.05282283201813698,0.0776936262845993,1.0145100355148315,-0.0975167527794838,-0.10767979919910431,0.09319058060646057,-16.415279388427734,-24.333032608032227,-9.385124206542969
1696902324.508052,-0.02468356490135193,0.07745083421468735,1.0125603675842285,-0.3598833680152893,-0.12997639179229736,0.1121274009346962,-16.231082916259766,-24.50189208984375,-10.068347930908203
1696902324.5551035,-0.024189893156290054,0.018209444358944893,0.9389639496803284,0.07145050168037415,0.14691008627414703,-0.1672336459159851,-16.39712905883789,-24.756397247314453,-8.952607154846191
1696902324.6165414,-0.081455759704113,0.08352064341306686,0.9567538499832153,0.0738939642906189,-0.16127142310142517,-0.1073688492178917,-16.56316375732422,-24.612018585205078,-7.899505615234375
1696902324.6731656,-0.03949370235204697,0.07817921042442322,0.9757621884346008,-0.2605547606945038,-0.32376158237457275,0.3132118880748749,-15.919088363647461,-25.177064895629883,-7.823605537414551
1696902324.7453086,0.02303236350417137,0.006798191927373409,0.9728378057479858,-0.1303502917289734,-0.021624503657221794,0.11545594781637192,-15.270127296447754,-25.51397132873535,-7.017683029174805
1696902324.8068795,-0.025917742401361465,0.02282250113785267,0.9443252682685852,0.05138212442398071,-0.059498149901628494,-0.2684728503227234,-14.530888557434082,-26.105831146240234,-7.389163017272949
1696902324.864299,-0.0466519370675087,0.010925665497779846,0.9918461441993713,-0.10163962095975876,0.03488053008913994,-0.196390762925148,-14.02200984954834,-26.606889724731445,-6.417154312133789
1696902324.92973,-0.03825952485203743,0.02549321949481964,0.9565101265907288,0.3551041781902313,-0.04961496964097023,-0.30736809968948364,-13.125842094421387,-27.148595809936523,-6.708707332611084
1696902325.0005038,-0.044924091547727585,0.04054636135697365,0.9933083653450012,0.24911905825138092,0.000475982204079628,-0.500401496887207,-13.074284553527832,-27.15059471130371,-6.082856178283691
1696902325.060384,-0.05183548480272293,0.015781516209244728,1.0218209028244019,0.3502172529697418,0.2521524727344513,-0.4209890365600586,-12.769476890563965,-26.849586486816406,-4.8091044425964355
1696902325.1203291,-0.08886083215475082,0.07429452240467072,1.0201150178909302,0.38961806893348694,-0.14582623541355133,-0.736806333065033,-11.39922046661377,-26.651430130004883,-4.12777042388916
1696902325.1850283,-0.05529118701815605,0.1677696704864502,1.017678141593933,-0.14000210165977478,-0.19988781213760376,-0.7282542586326599,-10.213852882385254,-26.16745948791504,-3.7122292518615723
1696902325.2486193,-0.01900634355843067,0.042974285781383514,0.9494429230690002,0.23079310357570648,-0.1516294628381729,-0.6384570598602295,-9.405993461608887,-25.397790908813477,-2.6379551887512207
1696902325.2926059,0.00048489184700883925,0.16631290316581726,0.9669890999794006,-0.012942122295498848,-0.04808780550956726,-0.6827448010444641,-8.255797386169434,-24.938852310180664,-2.537580966949463
1696902325.358046,0.0021820133551955223,0.09760261327028275,0.9911150336265564,-0.19131477177143097,-0.0010511805303394794,-0.1592332422733307,-7.058366298675537,-24.47320556640625,-2.522228479385376
1696902325.425792,0.003636688692495227,0.03471934050321579,0.8756027817726135,0.19322489202022552,-0.12352966517210007,-0.5715672969818115,-6.670783519744873,-23.893856048583984,-1.7866355180740356
1696902325.4771037,-0.0562785267829895,0.09760261327028275,0.9316530227661133,0.26164180040359497,0.04018222168087959,-0.7306976914405823,-6.12727689743042,-23.29450225830078,-1.6404445171356201
1696902325.533968,-0.09034185111522675,0.1437332034111023,0.9606529474258423,0.27691343426704407,0.04232025146484375,-0.3907511830329895,-5.74553108215332,-22.168054580688477,-0.9484153389930725
1696902325.5991023,-0.059487391263246536,0.10075891762971878,0.9842915534973145,0.04417377710342407,0.21458426117897034,-0.19680146872997284,-5.547703266143799,-21.10987663269043,0.49797770380973816
1696902325.6581037,-0.02468356490135193,0.11484088748693466,1.0167032480239868,-0.08685681968927383,0.48092150688171387,-0.0422525592148304,-5.211000442504883,-20.593168258666992,0.01621740125119686
1696902325.730598,-0.07528486847877502,0.007526569999754429,1.0252326726913452,0.22132469713687897,0.35141807794570923,-0.17083968222141266,-5.439836502075195,-19.79140853881836,1.5558018684387207
1696902325.8050766,-0.11206338554620743,0.05389995500445366,0.9996444582939148,0.2756916880607605,-0.13483066856861115,-0.2389511615037918,-5.979088306427002,-19.165084838867188,2.760662078857422
1696902325.8556206,-0.08984818309545517,0.1325647383928299,0.981610894203186,-0.13236628472805023,-0.23592886328697205,0.01944483071565628,-6.100301265716553,-18.663467407226562,3.257546901702881
1696902325.9506006,-0.05381016805768013,0.010440080426633358,0.9219051599502563,0.18619994819164276,-0.06183227151632309,-0.12563565373420715,-6.0304436683654785,-18.135648727416992,4.042212009429932
1696902326.0149205,-0.06886714696884155,0.13960573077201843,0.9163001775741577,-0.15768960118293762,-0.1353904902935028,0.09496285021305084,-5.554846286773682,-17.949466705322266,3.0395946502685547
1696902326.06795,-0.014069631695747375,0.07720804214477539,0.9662579894065857,-0.4307463765144348,-0.10179291665554047,0.17712421715259552,-5.469569206237793,-17.911317825317383,3.95989990234375
1696902326.1195297,-0.018759509548544884,0.02694997750222683,0.9767369627952576,-0.03371843695640564,-0.025607880204916,-0.07089687883853912,-5.361785411834717,-17.936283111572266,5.17399263381958
1696902326.1824334,-0.0659051164984703,0.08084993064403534,0.935552179813385,0.1184455081820488,-0.08774498105049133,-0.2535988688468933,-5.443317890167236,-17.353214263916016,4.965018272399902
1696902326.2396383,-0.09848742187023163,0.07332336157560349,0.906552255153656,0.09513357281684875,-0.12741127610206604,-0.04333138465881348,-5.114258289337158,-16.88289451599121,5.221027374267578
1696902326.3084366,-0.07158233970403671,0.053657159209251404,0.8702414631843567,0.27078568935394287,-0.11601710319519043,-0.1489475816488266,-5.16578483581543,-16.208433151245117,5.886263370513916
1696902326.3574889,-0.08170259743928909,0.099544957280159,0.9365270137786865,-0.0496131107211113,-0.08089235424995422,-0.18285059928894043,-4.434537410736084,-15.846710205078125,4.957498073577881
1696902326.40862,-0.06664562970399857,0.05754183977842331,1.008173942565918,0.013692745007574558,-0.0772523358464241,-0.07658979296684265,-3.976020574569702,-15.539508819580078,4.508911609649658
1696902326.464471,-0.03998737409710884,0.053657159209251404,1.0820139646530151,0.042403411120176315,-0.050985127687454224,-0.3676670789718628,-3.6490907669067383,-15.370380401611328,4.390190601348877
1696902326.5147312,-0.0543038435280323,0.10634315013885498,1.1093080043792725,0.3227905333042145,0.025067593902349472,-0.1602783352136612,-3.6329946517944336,-14.85617446899414,4.386166572570801
1696902326.576223,-0.03998737409710884,0.09201838076114655,1.1002912521362305,0.0002494463697075844,-0.007485734764486551,0.07124348729848862,-4.203666687011719,-13.956915855407715,5.970753192901611
1696902326.633576,-0.024189893156290054,0.07405173778533936,0.9925772547721863,0.32186999917030334,-0.17180848121643066,-0.36552515625953674,-4.4227681159973145,-13.315584182739258,5.751410007476807
1696902326.7075744,-0.022462045773863792,0.13790619373321533,0.9701571464538574,-0.002499448135495186,-0.1656998246908188,-0.36124908924102783,-4.012723445892334,-12.900604248046875,5.501730918884277
1696902326.767288,-0.030360786244273186,0.11896836012601852,0.9601655602455139,-0.2166077047586441,0.0322205051779747,-0.3056603670120239,-3.809225559234619,-12.274682998657227,5.899340629577637
1696902326.8308282,-0.04344307258725166,0.04613059014081955,0.9348210692405701,0.07294241338968277,0.11774163693189621,-0.272673636674881,-3.462639331817627,-12.738911628723145,5.26833438873291
1696902326.9031525,-0.06689245998859406,0.11386971920728683,0.8639053106307983,0.027432948350906372,-0.14615213871002197,-0.13431265950202942,-3.7126097679138184,-12.071160316467285,6.308717727661133
1696902326.9561105,-0.0009873425588011742,0.0978454053401947,0.9102077484130859,-0.04434371739625931,-0.18097145855426788,-0.22991308569908142,-3.58219313621521,-11.510095596313477,6.266646862030029
1696902327.0100272,-0.012835453264415264,0.11362691968679428,0.9457874298095703,0.12221059203147888,0.003912699408829212,-0.06535734981298447,-3.333909749984741,-11.135904312133789,6.583730220794678
1696902327.0749927,-0.04591142758727074,0.09978774189949036,0.9920898675918579,-0.07832067459821701,0.20075857639312744,0.09659885615110397,-3.1433265209198,-10.87982177734375,6.152915954589844
1696902327.127529,-0.06862030923366547,0.06846750527620316,1.0252326726913452,-0.14857016503810883,0.20931069552898407,0.15218758583068848,-3.9225544929504395,-11.07039737701416,7.346192359924316
1696902327.1886244,-0.07232284545898438,0.10537197440862656,1.0274258852005005,-0.099323570728302,-0.16143286228179932,0.012756386771798134,-3.8932101726531982,-10.967082977294922,7.684418201446533
1696902327.2563202,-0.0757785439491272,0.18015208840370178,1.0715351104736328,-0.37574008107185364,-0.4543427526950836,0.3108586370944977,-3.4289441108703613,-10.911299705505371,7.875539302825928
1696902327.3065193,0.046549614518880844,-0.04728027433156967,0.958459734916687,0.037480421364307404,-0.0055670649744570255,0.1741030216217041,-2.740750312805176,-11.480963706970215,7.092368125915527
1696902327.3584144,-0.014316467568278313,0.09323234856128693,0.9945268034934998,0.21218787133693695,0.34079352021217346,-0.36437469720840454,-2.3422234058380127,-12.087039947509766,6.31520938873291
1696902327.4189055,-0.07281651347875595,0.14858904480934143,0.9626024961471558,0.04878142476081848,0.018562112003564835,0.24862858653068542,-2.4144017696380615,-12.039435386657715,6.641795635223389
1696902327.4788132,0.006788485683500767,0.06968147307634354,0.9509051442146301,-0.28933247923851013,0.05735205486416817,0.15974768996238708,-1.4933708906173706,-12.173088073730469,6.903436183929443
1696902327.5392213,-0.035791169852018356,0.06409724056720734,0.9401824474334717,0.2845754325389862,-0.024503886699676514,-0.26236018538475037,-1.5386524200439453,-12.290802955627441,7.6107282638549805
1696902327.5889106,-0.042702566832304,0.08594857156276703,0.9321404099464417,-0.037350572645664215,0.10713757574558258,-0.3222249746322632,-1.9694993495941162,-11.836585998535156,8.038591384887695
1696902327.64994,-0.08984818309545517,0.026707183569669724,0.9099640250205994,0.28762975335121155,0.24458225071430206,-0.3054261803627014,-2.338676929473877,-11.569525718688965,7.71722936630249
1696902327.7106757,-0.1303292214870453,0.06288327276706696,0.8873002529144287,0.41804948449134827,0.15234160423278809,-0.26205477118492126,-2.3452036380767822,-11.013815879821777,7.017737865447998
1696902327.7854195,-0.1241583302617073,0.13572104275226593,0.9470059275627136,0.25769734382629395,-0.10513810068368912,-0.2544189393520355,-2.7741928100585938,-10.270964622497559,7.613955497741699
1696902327.8454394,-0.03332281485199928,0.08230668306350708,1.0605686902999878,-0.20686568319797516,0.010620864108204842,-0.047946497797966,-2.9713103771209717,-9.463841438293457,8.227143287658691
1696902327.9097013,-0.0681266337633133,0.029377900063991547,1.046190619468689,0.3447456359863281,0.19326956570148468,-0.28251874446868896,-3.05045223236084,-9.288987159729004,8.26281452178955
1696902327.9558737,-0.09824059158563614,0.16145706176757812,1.0469216108322144,-0.35530591011047363,-0.24960774183273315,-0.12705355882644653,-3.477389335632324,-8.812131881713867,8.615608215332031
1696902328.0118089,-0.03825952485203743,0.028649523854255676,0.9604092836380005,0.4617263376712799,-0.3134431540966034,-0.2794644236564636,-3.308619976043701,-8.72970199584961,7.601266384124756
1696902328.0756962,-0.030607620254158974,0.14130526781082153,0.956266462802887,-0.02921535074710846,-0.1622297465801239,-0.05014367029070854,-2.735212564468384,-8.70014762878418,6.918249130249023
1696902328.134535,0.004848918411880732,0.1269805133342743,0.9545605182647705,-0.12389945983886719,0.09127934277057648,0.3722696304321289,-2.4730329513549805,-8.995957374572754,6.598686695098877
1696902328.1995656,0.001212229602970183,0.04054636135697365,1.015241026878357,-0.37740853428840637,0.4538278579711914,0.2965223491191864,-2.829169988632202,-9.194610595703125,7.300240993499756
1696902328.2652647,-0.11872794479131699,0.005098644178360701,0.8977791666984558,0.6677819490432739,0.30050069093704224,0.04973279684782028,-3.2292308807373047,-9.67832088470459,7.77859354019165
1696902328.3256147,-0.09750007838010788,0.1442187875509262,0.8860816955566406,-0.18132080137729645,0.1706918179988861,0.07141850888729095,-4.174935817718506,-9.547945022583008,8.652217864990234
1696902328.3915312,-0.08713298290967941,0.12722331285476685,0.9440816044807434,-0.2698962688446045,0.24613367021083832,0.4064781069755554,-4.075350761413574,-10.117888450622559,8.295683860778809
1696902328.466983,-0.06960765272378922,0.06458282470703125,1.049358606338501,-0.4965272843837738,0.4385562539100647,0.5543074607849121,-4.7055511474609375,-11.271459579467773,8.605594635009766
1696902328.5281658,-0.11625958979129791,0.0424887016415596,1.0096360445022583,0.07218828052282333,0.13342903554439545,0.2061142921447754,-5.568051338195801,-12.111598014831543,9.31733226776123
1696902328.5910494,-0.14513936638832092,0.05098643898963928,0.9650395512580872,0.1549605280160904,-0.3158623278141022,0.19786761701107025,-5.786839962005615,-13.128826141357422,8.743867874145508
1696902328.65798,-0.09281020611524582,0.15417328476905823,1.0569132566452026,-0.38809868693351746,-0.3647315502166748,0.5097143650054932,-6.079150199890137,-12.99643611907959,9.45168685913086
1696902328.71773,-0.04443041607737541,0.028649523854255676,0.9435941576957703,0.25911304354667664,-0.10786272585391998,0.20305997133255005,-5.636961460113525,-13.567627906799316,9.270227432250977
1696902328.792476,-0.058746885508298874,0.082792267203331,0.9331152439117432,-0.09030187129974365,-0.11030618846416473,0.3029364347457886,-5.517693042755127,-13.641164779663086,9.088090896606445
1696902328.8514109,-0.05800637975335121,0.08352064341306686,0.9474933743476868,-0.1782664656639099,-0.14909614622592926,-0.034872036427259445,-5.768010139465332,-14.237627983093262,9.649092674255371
1696902328.9117436,-0.09552539139986038,0.09080442786216736,0.9058212041854858,0.15160076320171356,-0.27218547463417053,-0.29296261072158813,-5.634715557098389,-14.665629386901855,9.002705574035645
1696902328.9843476,-0.09231653064489365,0.09808819741010666,0.905577540397644,-0.01302742026746273,-0.11916373670101166,-0.17109499871730804,-5.301879405975342,-14.765999794006348,8.388901710510254
1696902329.053873,-0.07997474819421768,0.06871029734611511,0.9097203016281128,0.12481587380170822,-0.011024432256817818,-0.42058634757995605,-5.528563976287842,-14.8692045211792,8.901762008666992
1696902329.107755,-0.08713298290967941,0.08352064341306686,0.9728378057479858,0.05059574544429779,0.10717799514532089,-0.5601691007614136,-5.309688568115234,-14.501274108886719,9.367204666137695
1696902329.1591485,-0.07874057441949844,0.045159418135881424,0.9957453608512878,-0.03278736025094986,0.4147486388683319,-0.12248411774635315,-5.316193103790283,-14.06109619140625,8.782904624938965
1696902329.2201765,-0.10441148281097412,-0.05138111487030983,0.9920898675918579,0.15932975709438324,0.31609389185905457,-0.18967929482460022,-6.364373207092285,-14.223014831542969,9.307801246643066
1696902329.276524,-0.1340317577123642,0.017238274216651917,1.000375509262085,0.36549678444862366,-0.2828594744205475,-0.4086744785308838,-7.1554484367370605,-14.497187614440918,9.641849517822266
1696902329.3394506,-0.006417726632207632,-0.04776272922754288,0.9996444582939148,-0.09326302260160446,-0.3335613012313843,-0.09591147303581238,-7.194515705108643,-14.5614652633667,9.077980041503906
1696902329.3972514,0.003879134776070714,0.02476484328508377,0.9301908612251282,0.3377024233341217,-0.10265421867370605,-0.5329855680465698,-7.084814071655273,-14.822076797485352,8.122264862060547
1696902329.4532263,0.0009697836940176785,0.11823998391628265,0.9879470467567444,-0.23498375713825226,-0.006137509364634752,-0.38973766565322876,-7.562042236328125,-14.797643661499023,8.286233901977539
1696902329.5167334,0.013576971367001534,0.014810346998274326,1.0013504028320312,-0.1818384826183319,0.23698686063289642,0.13560645282268524,-8.115642547607422,-14.615792274475098,8.421082496643066
1696902329.5723825,-0.0009873425588011742,0.0029135108925402164,1.012073040008545,-0.05905456840991974,0.18414701521396637,0.22570908069610596,-8.156449317932129,-15.059680938720703,8.31472396850586
1696902329.625187,-0.004196206107735634,0.06458282470703125,0.923611044883728,0.4745362401008606,0.010050419718027115,-0.13378512859344482,-8.561468124389648,-15.135753631591797,9.05584716796875
1696902329.6817298,-0.031348127871751785,0.10634315013885498,0.9287286400794983,0.2023957520723343,-0.12495080381631851,-0.17440766096115112,-8.647512435913086,-15.421568870544434,8.735882759094238
1696902329.741094,-0.07084183394908905,0.07987875491380692,0.9404261112213135,0.16829723119735718,-0.0688595250248909,-0.01606767252087593,-9.260695457458496,-15.520153045654297,8.921026229858398
1696902329.815573,-0.04344307258725166,0.12528096139431,0.9443252682685852,-0.115755096077919,-0.11895047873258591,0.3293766379356384,-9.690298080444336,-15.649136543273926,8.201131820678711
1696902329.8693047,-0.01900634355843067,0.03981798142194748,0.9847790002822876,-0.008548248559236526,0.0673634260892868,0.32876574993133545,-9.735438346862793,-15.705239295959473,8.747210502624512
1696902329.9281137,-0.01629115268588066,0.05899859592318535,0.9287286400794983,0.161883145570755,-0.1143689826130867,0.27806395292282104,-9.735272407531738,-16.136001586914062,8.232439994812012
1696902329.9917755,-0.002715192036703229,0.06676795333623886,0.8361238837242126,-0.008548248559236526,-0.17392833530902863,0.16535930335521698,-9.586458206176758,-16.732595443725586,7.507153034210205
1696902330.0474815,0.007515823468565941,0.08619136363267899,0.9121572971343994,-0.4049997925758362,0.07438837736845016,0.1748277246952057,-9.20969009399414,-17.375532150268555,7.335124969482422
1696902330.1031575,-0.013082289136946201,-0.018815619871020317,0.9340900778770447,-0.05525127053260803,0.058123186230659485,0.1082259863615036,-9.83818244934082,-18.27181053161621,7.150225639343262
1696902330.1560404,-0.024189893156290054,0.042974285781383514,0.9655268788337708,-0.009008284658193588,-0.29587987065315247,0.12542344629764557,-9.61878490447998,-18.712142944335938,7.401055335998535
1696902330.2122524,-0.018512673676013947,0.0012139629106968641,0.9976949095726013,-0.09850004315376282,-0.32184165716171265,0.2512616813182831,-9.75766658782959,-19.086631774902344,7.987832069396973
1696902330.2645388,0.04509493708610535,0.045159418135881424,0.9684512615203857,-0.4946461617946625,-0.11078771203756332,0.3764890730381012,-9.684000968933105,-19.25311851501465,8.336058616638184
1696902330.3244872,0.04727695509791374,-0.025569945573806763,1.0315687656402588,-0.16844411194324493,0.2771117389202118,0.09121499955654144,-9.470186233520508,-19.572797775268555,7.911997318267822
1696902330.3836427,-0.004196206107735634,0.01068287342786789,1.0530141592025757,-0.27931615710258484,0.27558454871177673,-0.10304014384746552,-9.557828903198242,-20.43547821044922,7.015394687652588
1696902330.443316,-0.0486266203224659,-0.053069695830345154,1.0900559425354004,-0.29275521636009216,0.02848955988883972,-0.1393866240978241,-9.787766456604004,-21.43095588684082,6.094998359680176
1696902330.502442,-0.002715192036703229,-0.019539296627044678,1.115644097328186,-0.2719857692718506,-0.20852616429328918,-0.10090212523937225,-9.28601360321045,-22.183515548706055,6.239733695983887
1696902330.5639334,-0.0037025348283350468,-0.05089866369962692,1.0315687656402588,0.1931881159543991,-0.25556278228759766,-0.1949753612279892,-9.655821800231934,-22.11149787902832,6.501313209533691
1696902330.6306722,0.018183445557951927,-0.09263074398040771,1.055694818496704,-0.0942239910364151,-0.11139857769012451,-0.34402647614479065,-9.738518714904785,-21.85376739501953,5.865893363952637
1696902330.6901767,0.00048489184700883925,-0.041249629110097885,1.0259637832641602,-0.021176759153604507,-0.03090735524892807,-0.03880394622683525,-8.73129653930664,-21.94583511352539,5.049034595489502
1696902330.752295,0.019395673647522926,-0.05089866369962692,1.0018377304077148,0.036800406873226166,-0.08030365407466888,0.026247557252645493,-8.613959312438965,-21.728321075439453,5.5429511070251465
1696902330.8110242,0.003879134776070714,-0.04776272922754288,0.970400869846344,0.12453632056713104,-0.09291789680719376,-0.1146879643201828,-7.916975021362305,-22.445714950561523,5.181731700897217
1696902330.869312,0.019880564883351326,-0.06706079840660095,0.9886780977249146,-0.10178925096988678,-0.035801999270915985,-0.1644734889268875,-8.052075386047363,-21.900753021240234,5.770808696746826
1696902330.9345145,0.0053338101133704185,-0.0012061294401064515,1.0076864957809448,0.1621045470237732,0.2174016386270523,-0.06612418591976166,-7.745062828063965,-21.514493942260742,5.208138465881348
1696902330.9910684,-0.0069113983772695065,-0.02388136461377144,0.9560227394104004,-0.11050185561180115,0.050794925540685654,-0.10488960146903992,-7.121002197265625,-21.783063888549805,4.605644226074219
1696902331.0432897,-0.012341782450675964,-0.048245180398225784,0.9803923964500427,-0.14226685464382172,-0.03442077711224556,-0.16567069292068481,-6.907496452331543,-21.885940551757812,4.24019193649292
1696902331.1113708,-0.005924055352807045,-0.0634424090385437,0.9950142502784729,0.0210846159607172,-0.029337789863348007,-0.02625013142824173,-7.013153553009033,-22.078813552856445,4.4722113609313965
1696902331.1599646,0.009212944656610489,-0.05065743625164032,0.9764932990074158,-0.004971942398697138,0.018285077065229416,-0.009317189455032349,-7.3452372550964355,-21.81101417541504,5.0121965408325195
1696902331.2083175,0.009212944656610489,-0.0562056340277195,0.9767369627952576,0.0011915168724954128,0.04503019526600838,0.070559062063694,-7.448586940765381,-21.609926223754883,5.643412113189697
1696902331.2647789,0.0041215806268155575,-0.06464854627847672,0.973325252532959,0.052297987043857574,0.048601601272821426,-0.04847574606537819,-7.25728702545166,-21.79520606994629,4.587881088256836
1696902331.3380108,-0.017525332048535347,-0.04631537199020386,0.9801487326622009,-0.01148451678454876,0.033501382917165756,-0.08978751301765442,-7.709698677062988,-21.813230514526367,4.813083648681641
1696902331.3898816,-0.009626590646803379,-0.05138111487030983,0.9711319208145142,-0.00884316023439169,0.02472139708697796,-0.09457333385944366,-7.152567386627197,-22.11351203918457,4.303011894226074
1696902331.4424853,-0.010613933205604553,-0.05934157222509384,0.9774680733680725,-0.04794023185968399,-0.014088591560721397,-0.07781335711479187,-7.104689121246338,-22.014362335205078,4.504968166351318
1696902331.506744,-0.004196206107735634,-0.0771922841668129,0.9711319208145142,-0.006426145788282156,0.003410064149647951,-0.09715566039085388,-7.210700511932373,-21.99602508544922,4.193338871002197
1696902331.5647845,-0.01505697425454855,-0.055240727961063385,0.9740563035011292,0.006234724074602127,0.010304301045835018,0.012005578726530075,-6.7992753982543945,-21.747482299804688,4.544942855834961
1696902331.626088,-0.013575960882008076,-0.06295996159315109,0.9786865711212158,0.04336705431342125,0.015236208215355873,0.045737624168395996,-6.799884796142578,-21.815845489501953,4.175882816314697
1696902331.7048357,-0.012341782450675964,-0.05427582561969757,0.9747873544692993,-0.01840902492403984,0.0016094227321445942,0.006717558950185776,-7.826534748077393,-21.83287811279297,5.028043746948242
1696902331.7720025,-0.012588618323206902,-0.05861789360642433,0.9764932990074158,0.016117850318551064,0.004378456622362137,-0.03806636855006218,-7.654419898986816,-22.107467651367188,4.849154949188232
1696902331.845966,-0.01505697425454855,-0.051863569766283035,0.9694260358810425,-0.02729075774550438,0.02112618461251259,-0.02228974923491478,-8.118656158447266,-21.874557495117188,5.167680263519287
1696902331.9024768,-0.01727849617600441,-0.06947305798530579,0.9774680733680725,-0.0025679708924144506,-0.0025482140481472015,-0.005084831267595291,-8.020072937011719,-21.580698013305664,5.239193439483643
1696902331.96708,-0.012341782450675964,-0.05789421498775482,0.9728378057479858,-0.02718774974346161,0.02352212555706501,0.050313375890254974,-8.004317283630371,-21.7011661529541,5.788733959197998
1696902332.0226192,-0.016537988558411598,-0.06609589606523514,0.9840478897094727,-0.0347413569688797,0.017991874366998672,0.1071934700012207,-8.357519149780273,-21.447744369506836,5.523427486419678
1696902332.0664308,-0.0291266068816185,-0.07550370693206787,0.9786865711212158,0.02291564829647541,-0.026430610567331314,0.0460609532892704,-8.451313972473145,-21.762670516967773,5.898261547088623
1696902332.1154718,-0.012588618323206902,-0.06585466861724854,0.9735689163208008,-0.009611744433641434,-0.01489028986543417,-0.006265264004468918,-8.161819458007812,-22.094253540039062,5.217105388641357
1696902332.1587067,-0.011107604019343853,-0.06416608393192291,0.9740563035011292,-0.0037306570447981358,0.0020827786065638065,-0.038675885647535324,-7.735381126403809,-22.2003173828125,4.179081916809082
1696902332.20285,-0.020487360656261444,-0.0704379603266716,0.9757621884346008,-0.008570630103349686,0.0011984785087406635,-0.06430826336145401,-7.748566150665283,-22.328683853149414,3.7535414695739746
1696902332.2492707,-0.022215208038687706,-0.07863964140415192,0.9764932990074158,0.01321968249976635,-0.01328927930444479,0.0023788511753082275,-7.9712605476379395,-22.41059112548828,4.453528881072998
1696902332.2876966,-0.012341782450675964,-0.07888086885213852,0.9767369627952576,0.02878534235060215,-0.005659440532326698,0.04265978932380676,-7.960846900939941,-22.26850700378418,5.075550079345703
1696902332.3243108,-0.016044316813349724,-0.07140286266803741,0.9738126397132874,0.04401934891939163,-0.001625468023121357,0.03402412682771683,-7.755862712860107,-22.280834197998047,5.287748336791992
1696902332.3863428,-0.015303810127079487,-0.056688085198402405,0.9718630313873291,-0.011572657153010368,0.015451728366315365,0.05152542516589165,-7.617722988128662,-22.285846710205078,4.825151443481445
1696902332.4470313,-0.022215208038687706,-0.07502125203609467,0.9774680733680725,0.021936440840363503,-0.014442959800362587,0.040889665484428406,-7.240478515625,-22.744731903076172,3.978870153427124
1696902332.521829,-0.013082289136946201,-0.06657834351062775,0.9750310778617859,0.027104467153549194,-0.016910605132579803,0.00811900943517685,-7.515600681304932,-22.59325408935547,3.828092575073242
1696902332.5870056,-0.01629115268588066,-0.0774335116147995,0.9786865711212158,0.038393158465623856,-0.009872153401374817,-0.02483249083161354,-7.516205310821533,-22.70350456237793,3.4706764221191406
1696902332.6443639,-0.015797480940818787,-0.06006524711847305,0.9713756442070007,0.00942408200353384,-0.004027629736810923,-0.020859748125076294,-7.536486625671387,-22.842876434326172,3.0811104774475098
1696902332.7106726,-0.015303810127079487,-0.07574492692947388,0.9750310778617859,0.04793611541390419,-0.018731538206338882,0.005808819085359573,-7.318473815917969,-22.534276962280273,3.440297842025757
1696902332.775868,-0.013082289136946201,-0.06175382807850838,0.973325252532959,-0.01480577141046524,0.005818491335958242,0.003948740661144257,-6.963929176330566,-22.71481704711914,3.4921791553497314
1696902332.8429751,-0.015303810127079487,-0.06947305798530579,0.973325252532959,0.02317417412996292,0.0033738338388502598,-0.01907806470990181,-7.400773048400879,-22.558107376098633,3.9223358631134033
1696902332.9229069,-0.01456330344080925,-0.07140286266803741,0.9777117371559143,0.009727364405989647,-0.002678968943655491,-0.04598883166909218,-7.29531717300415,-22.476282119750977,4.413628578186035
1696902332.9837708,-0.014810139313340187,-0.06561344116926193,0.9777117371559143,0.006158326752483845,-0.0013208230957388878,-0.022463101893663406,-7.2873382568359375,-22.438343048095703,3.5456364154815674
1696902333.0665748,-0.014810139313340187,-0.0706791877746582,0.9806361198425293,0.019510343670845032,-0.04733362793922424,-0.02585846558213234,-7.351292133331299,-22.447925567626953,4.40696907043457
1696902333.1338854,-0.0074050696566700935,-0.062236279249191284,0.9723504185676575,-0.11570773273706436,-0.14538198709487915,0.0654621571302414,-7.276957035064697,-22.394920349121094,4.645211219787598
1696902333.2063525,0.022062579169869423,-0.08997726440429688,0.9989133477210999,-0.1541922390460968,-0.3539924621582031,-0.17796765267848969,-7.184275150299072,-22.046743392944336,5.222092628479004
1696902333.2741778,0.11297979205846786,-0.14690658450126648,1.064224123954773,-0.17221276462078094,-0.21776951849460602,-0.2625724971294403,-6.411639213562012,-22.113265991210938,4.5213704109191895
1696902333.3485732,0.12728409469127655,-0.08635887503623962,1.0332746505737305,0.08862669765949249,0.09407719224691391,-0.44705381989479065,-6.356070518493652,-22.08955955505371,4.787428855895996
1696902333.3972957,0.0766129121184349,-0.1329154670238495,1.0400981903076172,0.13719047605991364,0.20983615517616272,-0.24058133363723755,-6.809897422790527,-22.218374252319336,5.093806266784668
1696902333.4690847,0.03515465557575226,-0.08298170566558838,1.0340057611465454,0.31220337748527527,-0.09193126857280731,0.02270158752799034,-7.2750043869018555,-21.702280044555664,5.1732306480407715
1696902333.5370483,0.05067119374871254,-0.09480177611112595,1.024745225906372,0.24195386469364166,-0.17226004600524902,0.09386739134788513,-7.469836711883545,-21.27993392944336,5.707597732543945
1696902333.5893202,0.0863107442855835,-0.05210479348897934,1.0420477390289307,-0.0017514198552817106,-0.057052984833717346,0.05355117470026016,-7.415703773498535,-20.3615779876709,6.225069522857666
1696902333.661051,0.10013016313314438,-0.09311319142580032,1.044728398323059,-0.02904665470123291,0.4338916838169098,-0.2604275643825531,-7.146698951721191,-20.24906349182129,5.4206390380859375
1696902333.7143142,-0.0019746851176023483,-0.03570143133401871,0.9506614208221436,-0.036377035081386566,0.3483705520629883,-0.3157108724117279,-7.898192405700684,-19.807024002075195,6.517900466918945
1696902333.7706416,0.002424459205940366,-0.08056945353746414,0.9299471974372864,0.3643505573272705,0.14159266650676727,-0.18193136155605316,-7.846479415893555,-19.444347381591797,6.934727668762207
1696902333.8446014,0.019880564883351326,-0.028705881908535957,0.8899809122085571,-0.09746356308460236,0.3156892657279968,-0.6190054416656494,-8.018115997314453,-18.8402099609375,6.603287220001221
1696902333.9004164,0.015031646937131882,-0.013026198372244835,0.9365270137786865,0.47888779640197754,0.4537447988986969,-0.5554754734039307,-8.166339874267578,-18.382410049438477,6.881407260894775
1696902333.9592693,0.03273019939661026,-0.11844190955162048,0.9967200756072998,0.05952880531549454,0.044465091079473495,-0.25309717655181885,-9.090806007385254,-17.418119430541992,7.798973083496094
1696902334.010846,0.04218558967113495,0.008983325213193893,0.9608966708183289,0.511569082736969,-0.4051317274570465,-0.14894463121891022,-9.400492668151855,-16.678163528442383,7.914180755615234
1696902334.067988,0.0831589475274086,0.033019788563251495,0.9779554605484009,0.1871996372938156,-0.2438633143901825,-0.1752118468284607,-9.61369514465332,-15.704314231872559,7.036474704742432
1696902334.1317558,0.0807344913482666,0.06676795333623886,0.9124009609222412,0.20583103597164154,-0.10519689321517944,-0.10679493844509125,-8.66384506225586,-15.029236793518066,5.714947700500488
1696902334.202866,0.05261076241731644,0.057784635573625565,0.9194682240486145,-0.06200976297259331,0.21896681189537048,0.07824667543172836,-7.999805927276611,-14.42514705657959,5.256528377532959
1696902334.255743,0.008485606871545315,0.11556927114725113,0.8931489586830139,-0.09385402500629425,-0.10229828208684921,0.08872058242559433,-8.491805076599121,-13.6658353805542,6.629226207733154
1696902334.3147953,0.028366170823574066,0.0024279258213937283,0.8824263215065002,0.024539781734347343,-0.10478317737579346,0.13798005878925323,-8.3959321975708,-13.364483833312988,7.288174152374268
1696902334.3756263,0.07224888354539871,0.09760261327028275,0.8431911468505859,-0.28242000937461853,-0.14051878452301025,0.2971104681491852,-8.039847373962402,-13.25317096710205,6.966723918914795
1696902334.4423184,0.07588557153940201,-0.007236776873469353,0.9518798589706421,-0.27203530073165894,0.14383898675441742,0.25801509618759155,-7.505279064178467,-13.52612590789795,6.875072479248047
1696902334.5345995,-0.0602278970181942,-0.008684132248163223,1.0286444425582886,-0.18620873987674713,0.06259390711784363,0.2601531147956848,-7.547343730926514,-13.661615371704102,7.942981243133545
1696902334.5913856,-0.011601275764405727,-0.007719228509813547,1.0011066198349,0.07279813289642334,-0.5009292960166931,0.37010884284973145,-6.929623603820801,-13.94261360168457,7.01776123046875
1696902334.6582558,0.08873520791530609,0.011411250568926334,0.9357959032058716,0.13968786597251892,-0.6292110085487366,0.02588628977537155,-5.4300689697265625,-14.41349983215332,6.143550395965576
1696902334.738969,0.04606472700834274,0.023793673142790794,0.9470059275627136,0.07646332681179047,-0.2947622537612915,0.1651635617017746,-4.691916465759277,-14.040108680725098,6.269834041595459
1696902334.800915,0.0797647088766098,0.005584229249507189,1.0469216108322144,-0.20453469455242157,-0.012542517855763435,0.2974158823490143,-4.121115684509277,-14.082001686096191,6.010199546813965
1696902334.861421,0.05842946469783783,-0.022916460409760475,1.0264511108398438,-0.1523057222366333,0.4944756329059601,-0.3061189651489258,-3.3168933391571045,-14.39714241027832,5.218535423278809
1696902334.9326859,-0.07010132819414139,-0.055240727961063385,1.0147536993026733,0.1509888768196106,0.3521440327167511,-0.08132056891918182,-3.5661234855651855,-14.138790130615234,5.586651802062988
1696902334.9880028,-0.04245573282241821,-0.052346017211675644,0.973325252532959,0.11158807575702667,-0.05469221994280815,-0.1439342498779297,-3.5934643745422363,-13.98568058013916,5.928214073181152
1696902335.0460231,0.019395673647522926,0.012382421642541885,0.9382328391075134,0.05599934235215187,0.04793313890695572,-0.3192525804042816,-3.38675856590271,-13.790054321289062,5.865346431732178
1696902335.1091065,0.03127552196383476,-0.04776272922754288,0.9908714294433594,0.11067178100347519,0.32862570881843567,-0.43837130069732666,-2.9521424770355225,-13.18990421295166,5.527947425842285
1696902335.1627426,0.00630359398201108,-0.024846268817782402,0.9781991243362427,0.3968621492385864,0.04518424719572067,-0.5351934432983398,-3.3108036518096924,-12.490731239318848,5.85559606552124
1696902335.2362354,0.015274092555046082,-0.01978052407503128,0.9747873544692993,0.13907700777053833,-0.2584157884120941,-0.3806445300579071,-3.98919415473938,-11.548250198364258,6.089584827423096
1696902335.2975156,0.07418844848871231,0.01845223642885685,0.9182497262954712,0.190695121884346,-0.3100338876247406,-0.44600710272789,-3.4657962322235107,-10.71838665008545,4.558294296264648
1696902335.3525987,0.08946254104375839,0.00048558515845797956,1.039610743522644,-0.39268118143081665,0.05648525431752205,-0.24747592210769653,-3.2998945713043213,-10.166961669921875,4.948593616485596
1696902335.4170215,0.02569926716387272,0.10488639026880264,1.0459469556808472,-0.3050220310688019,0.14750416576862335,-0.3901129364967346,-2.7267675399780273,-9.962309837341309,5.013757705688477
1696902335.479796,0.07079420238733292,-0.17826594412326813,1.1529297828674316,-0.5405105352401733,1.4272668361663818,0.08147502690553665,-3.7659494876861572,-9.91134262084961,6.462884426116943
1696902335.536986,-0.11280389130115509,0.0441882498562336,0.9740563035011292,0.21238084137439728,0.2159210741519928,-0.2300662398338318,-5.205437183380127,-10.164162635803223,7.839418411254883
1696902335.6096606,-0.052329156547784805,-0.002653484931215644,0.9538294672966003,0.03797881677746773,-0.21473892033100128,-0.31283849477767944,-5.858851432800293,-9.757855415344238,8.755949974060059
1696902335.68244,-0.023202551528811455,0.024522049352526665,0.9007035493850708,-0.03691842779517174,0.12868058681488037,0.0511167086660862,-6.241296291351318,-9.080472946166992,8.860353469848633
1696902335.7469075,-0.042702566832304,-0.026534847915172577,0.9387202858924866,0.1356215476989746,0.029577594250440598,0.13441798090934753,-6.034779071807861,-9.275749206542969,8.184844970703125
1696902335.807465,-0.024930398911237717,-0.01519723143428564,0.9192245006561279,0.058778900653123856,-0.08599746972322464,0.12716656923294067,-6.095616817474365,-8.979580879211426,9.092214584350586
1696902335.8776956,-0.022462045773863792,-0.049692537635564804,0.9613840579986572,0.12437019497156143,-0.019425682723522186,0.3343995213508606,-5.90944766998291,-8.911345481872559,9.627608299255371
1696902335.930757,-0.05208232253789902,0.0699242651462555,0.9801487326622009,0.1365875005722046,-0.23842088878154755,0.14594760537147522,-5.7577314376831055,-8.299371719360352,10.08464241027832
1696902335.9896975,-0.06516461074352264,0.03836122900247574,1.1078459024429321,-0.12089220434427261,0.17910552024841309,0.6575472354888916,-5.053125858306885,-8.395940780639648,8.945269584655762
1696902336.0654545,-0.08071526139974594,0.023065295070409775,1.0464341640472412,-0.2433706820011139,0.21697916090488434,0.528043806552887,-4.418032169342041,-9.366965293884277,7.901295185089111
1696902336.1351624,-0.04591142758727074,-0.0014473553746938705,1.0213334560394287,0.09718669205904007,0.2032346874475479,0.13892264664173126,-4.856512546539307,-9.896231651306152,9.289600372314453
1696902336.2034502,-0.09034185111522675,-0.0019298071274533868,0.9211741089820862,-0.009251153096556664,0.024744495749473572,-0.12407197058200836,-5.1979570388793945,-9.788082122802734,8.600642204284668
1696902336.2635841,-0.10934819281101227,-0.04004349932074547,0.8212583661079407,0.16954854130744934,-0.00991061795502901,0.03170451521873474,-4.899876594543457,-9.874066352844238,7.858889579772949
1696902336.323543,-0.0641772672533989,0.013596383854746819,0.8329558372497559,0.07700245827436447,-0.05816897377371788,0.25314316153526306,-4.928290843963623,-9.865915298461914,7.204742908477783
1696902336.3771083,-0.03184179589152336,0.020394576713442802,0.8943674564361572,-0.04319816082715988,0.045853953808546066,0.1689419150352478,-5.079955101013184,-9.859378814697266,7.617965221405029
1696902336.4459414,-0.04294940456748009,-0.008925357833504677,0.9484680891036987,-0.06526447832584381,0.16360223293304443,0.020833874121308327,-4.703166484832764,-9.905511856079102,8.351422309875488
1696902336.497729,-0.10465831309556961,-0.00844290666282177,0.969669759273529,0.09048397839069366,0.02350033074617386,-0.19420459866523743,-4.531347751617432,-9.915550231933594,8.228750228881836
1696902336.5771444,-0.08812032639980316,0.04783013463020325,0.9952579140663147,-0.24671363830566406,-0.23275764286518097,0.05838816985487938,-4.713795185089111,-9.819350242614746,8.80667781829834
1696902336.6379843,-0.03998737409710884,0.01699548028409481,1.0015939474105835,-0.1544729769229889,-0.13624092936515808,-0.09799333661794662,-4.493220806121826,-10.132061958312988,8.705814361572266
1696902336.699672,-0.0446772500872612,-0.0036183884367346764,1.133921504020691,-0.86338210105896,0.2189772129058838,0.6429862380027771,-4.2524566650390625,-10.814379692077637,9.115152359008789
1696902336.7742739,-0.137981116771698,0.00024279257922898978,0.9947705268859863,-0.250989705324173,0.4196464419364929,0.3891717195510864,-4.461332321166992,-12.544824600219727,8.760540962219238
1696902336.8510313,-0.1764874905347824,-0.026534847915172577,0.9767369627952576,0.1900550127029419,0.2690681517124176,0.10023243725299835,-5.310898780822754,-13.401966094970703,10.08791446685791
1696902336.9145794,-0.15056973695755005,-0.018091943114995956,0.9662579894065857,0.037338703870773315,-0.02200912870466709,0.40261074900627136,-5.615307807922363,-14.072271347045898,9.635732650756836
1696902336.9946816,-0.08170259743928909,-0.0349777527153492,0.9450563788414001,0.1387423276901245,-0.17258740961551666,0.6011419296264648,-5.537641525268555,-14.494349479675293,9.468205451965332
1696902337.0476499,-0.1029304638504982,0.007526569999754429,0.8653675317764282,0.36323532462120056,-0.4083814024925232,0.3103700876235962,-5.7712297439575195,-14.494431495666504,9.40404224395752
1696902337.1067555,-0.0834304466843605,-0.022916460409760475,0.972594141960144,0.05230490118265152,-0.04980349913239479,0.5620465874671936,-5.163073539733887,-15.02935791015625,8.789793968200684
1696902337.1655478,-0.0718291699886322,0.004127473570406437,1.0349805355072021,0.07582321763038635,-0.4627484083175659,0.7391974925994873,-4.742481708526611,-15.225323677062988,8.569520950317383
1696902337.2364953,-0.06516461074352264,-0.024363813921809196,1.0045183897018433,0.004657413344830275,-0.6072180867195129,0.679638147354126,-4.131500720977783,-15.75497817993164,8.316136360168457
1696902337.2967691,-0.010120261460542679,-0.01519723143428564,1.0223082304000854,-0.3194065988063812,-0.07515440881252289,0.8051709532737732,-3.152987003326416,-17.089324951171875,7.78745174407959
1696902337.3564937,0.002424459205940366,-0.040525950491428375,0.991358757019043,-0.15578068792819977,0.07235445827245712,0.08893828094005585,-2.8916988372802734,-18.092132568359375,7.0365190505981445
1696902337.4171853,-0.06442410498857498,-0.04993376135826111,0.9279976487159729,-0.03879999741911888,0.42482370138168335,0.06297650933265686,-2.7856647968292236,-19.021289825439453,5.928456783294678
1696902337.4908204,-0.12712036073207855,-0.03039446286857128,0.8777960538864136,-0.013754520565271378,0.13618987798690796,0.383375346660614,-3.617083787918091,-19.295461654663086,6.0061492919921875
1696902337.544401,-0.07602537423372269,-0.014956005848944187,0.8777960538864136,-0.07423017919063568,-0.2556801736354828,0.3186236023902893,-4.199413776397705,-19.777801513671875,6.92093563079834
1696902337.6046767,-0.043196238577365875,-0.040525950491428375,0.9187371134757996,-0.00811796449124813,-0.051683999598026276,0.0943504050374031,-4.300256252288818,-20.218935012817383,7.005230903625488
1696902337.6584024,-0.0718291699886322,-0.02605239674448967,0.9318967461585999,0.19325579702854156,-0.09028664976358414,-0.07665949314832687,-3.7368969917297363,-21.122718811035156,5.513706207275391
1696902337.721813,-0.055044349282979965,0.04880130663514137,1.0159721374511719,-0.005275418050587177,-0.2543039917945862,-0.08979309350252151,-3.340686082839966,-21.804855346679688,4.91987419128418
1696902337.7747073,-0.03159496188163757,0.025250427424907684,1.0091487169265747,0.11445416510105133,-0.23689430952072144,-0.15271222591400146,-2.937952995300293,-21.99430274963379,4.485095500946045
1696902337.8317873,-0.01629115268588066,-0.01519723143428564,1.0549635887145996,-0.20136316120624542,-0.15656553208827972,0.014053992927074432,-2.910292148590088,-22.321392059326172,4.062872409820557
1696902337.8885098,-0.019746851176023483,-0.022192781791090965,1.060325026512146,-0.057198964059352875,-0.08112367242574692,-0.25472670793533325,-2.70737624168396,-22.960172653198242,4.038496971130371
1696902337.9371579,-0.049613963812589645,0.015781516209244728,1.0427788496017456,0.06476164609193802,-0.03396282345056534,-0.048205435276031494,-2.4287493228912354,-23.46728515625,3.6287600994110107
1696902337.9989085,-0.027645593509078026,0.002185133285820484,0.9940394163131714,0.126520574092865,-0.05352264642715454,0.007817402482032776,-2.685774326324463,-23.18874168395996,4.6663713455200195
1696902338.0522375,-0.018759509548544884,0.025736013427376747,0.9579722881317139,-0.02696954272687435,0.09241455048322678,0.02453215792775154,-3.0451772212982178,-22.94662094116211,5.2169294357299805
1696902338.1162174,-0.027645593509078026,0.008012155070900917,0.9401824474334717,-0.005739154294133186,0.2983425259590149,0.2100641429424286,-3.385650634765625,-23.58185386657715,4.704165458679199
1696902338.191092,-0.04171522334218025,-0.010855165310204029,0.9467622637748718,-0.0631604865193367,0.28551435470581055,0.3701108694076538,-3.525559902191162,-24.300443649291992,4.207455158233643
1696902338.2465417,-0.03974054008722305,-0.018574392423033714,0.9396950602531433,0.09474817663431168,-0.014725926332175732,0.46448954939842224,-4.102705478668213,-24.511093139648438,5.174055099487305
1696902338.313346,0.014546754769980907,-0.04583292081952095,0.9626024961471558,-0.047277990728616714,-0.04068769887089729,0.6856227517127991,-4.8384222984313965,-25.215269088745117,4.929084300994873
1696902338.3725872,0.04315537214279175,-0.03160059452056885,0.991358757019043,-0.04239106923341751,-0.042520295828580856,0.5732235312461853,-5.069030284881592,-26.13556671142578,4.426536560058594
1696902338.4260743,0.01648632250726223,0.05195761099457741,1.01134192943573,-0.19846713542938232,0.13004913926124573,0.4620460867881775,-5.499070644378662,-27.652376174926758,2.6982579231262207
1696902338.4995182,-0.017772166058421135,0.007040984462946653,1.0637367963790894,-0.19632911682128906,0.3591236174106598,0.3951563239097595,-6.087782382965088,-28.47983169555664,2.5591413974761963
1696902338.559669,-0.07553170621395111,0.026464389637112617,1.0391234159469604,0.004645555280148983,-0.006784678436815739,0.28153538703918457,-6.949703216552734,-28.671302795410156,2.3494396209716797
1696902338.6246786,-0.05183548480272293,0.025007635354995728,1.000375509262085,0.01716829091310501,-0.013198763132095337,0.24579976499080658,-7.550589561462402,-29.52344512939453,1.8553214073181152
1696902338.6814232,-0.0834304466843605,0.04200311377644539,0.8929052352905273,0.2609035074710846,0.10653083026409149,-0.13202038407325745,-8.187457084655762,-30.13447380065918,0.6155283451080322
1696902338.7514746,-0.11132287234067917,0.0033990959636867046,0.8992413878440857,0.04343549907207489,0.17372600734233856,0.1596677601337433,-8.319314002990723,-30.04053497314453,0.19190391898155212
1696902338.8006752,-0.08515829592943192,0.005584229249507189,0.8704851269721985,0.23616348206996918,0.0048217615112662315,0.13248427212238312,-8.522664070129395,-30.215717315673828,-0.3682577311992645
1696902338.8589973,-0.05109497904777527,0.0014567554462701082,0.8921741247177124,0.050744377076625824,-0.1478152871131897,-0.05936122313141823,-9.147578239440918,-30.850664138793945,0.24094265699386597
1696902338.919648,-0.029373442754149437,0.0007283777231350541,0.875359058380127,0.24282997846603394,-0.06670905649662018,-0.09002075344324112,-9.642375946044922,-30.78578758239746,-0.2199113667011261
1696902338.9802594,-0.03381648287177086,0.09444631636142731,0.923611044883728,-0.017093181610107422,-0.25119033455848694,-0.42172056436538696,-9.65514087677002,-30.907808303833008,-0.9511755108833313
1696902339.0379114,-0.04591142758727074,0.009468910284340382,0.999400794506073,-0.08795355260372162,0.07348452508449554,-0.24854028224945068,-10.078912734985352,-30.863059997558594,-1.2370638847351074
1696902339.1132247,-0.06837347894906998,0.05972697585821152,1.0349805355072021,-0.3255801200866699,-0.11252394318580627,-0.05886662006378174,-9.699540138244629,-30.69454574584961,-2.6367383003234863
1696902339.1786892,-0.07454437017440796,-0.02243400737643242,1.1078459024429321,-0.10872296988964081,-0.1714724451303482,-0.01580062136054039,-10.176644325256348,-30.987646102905273,-2.757288932800293
1696902339.2592928,-0.031348127871751785,0.033748168498277664,1.064711570739746,-0.1948549598455429,-0.3025030195713043,-0.09857285767793655,-10.693753242492676,-31.30368995666504,-3.5508971214294434
1696902339.3202534,-0.07059499621391296,0.007283777464181185,0.9833167791366577,0.17013701796531677,0.22558996081352234,-0.18287226557731628,-10.836955070495605,-31.804092407226562,-3.869729995727539
1696902339.3942492,-0.12958870828151703,0.04661617428064346,0.8687793016433716,0.17624567449092865,0.0655432790517807,-0.011524565517902374,-11.82155704498291,-31.512805938720703,-4.759373664855957
1696902339.4596922,-0.042702566832304,0.02330808714032173,0.9082581996917725,-0.07573623955249786,-0.17544306814670563,0.6530967950820923,-13.00566291809082,-31.184755325317383,-5.13417911529541
1696902339.533508,0.007515823468565941,-0.025811171159148216,0.953342080116272,0.029027145355939865,-0.12565754354000092,0.5565800666809082,-13.497243881225586,-31.139385223388672,-6.232899188995361
1696902339.5948653,-0.04936712980270386,0.03496213257312775,0.9833167791366577,0.16738812625408173,-0.24874688684940338,0.40111491084098816,-14.339226722717285,-30.99315071105957,-7.997621059417725
1696902339.657586,-0.04986079782247543,-0.005306969862431288,1.1168626546859741,-0.3313833475112915,0.2173432856798172,0.3876758813858032,-14.60361099243164,-30.853679656982422,-8.996058464050293
1696902339.721529,-0.06886714696884155,-0.004342066124081612,1.0878627300262451,-0.09986542165279388,0.1971847265958786,0.6094199419021606,-15.796707153320312,-30.246448516845703,-8.413263320922852
1696902339.7746427,-0.019253181293606758,0.004127473570406437,1.0006192922592163,-0.042138658463954926,-0.19040927290916443,0.32078614830970764,-16.81897735595703,-29.73656463623047,-8.274230003356934
1696902339.8243093,0.00048489184700883925,0.05050085484981537,0.9808798432350159,-0.22814711928367615,-0.15436822175979614,0.3491913676261902,-17.766809463500977,-29.56755828857422,-7.573250770568848
1696902339.8759966,0.008243161253631115,-0.03570143133401871,0.9365270137786865,0.01864243671298027,0.30591875314712524,-0.0356537401676178,-17.948457717895508,-29.125577926635742,-7.966342449188232
1696902339.9287143,-0.05084814503788948,0.029377900063991547,0.905577540397644,-0.01923120953142643,0.5414072871208191,0.01352090947329998,-18.18103790283203,-28.921968460083008,-9.061238288879395
1696902339.9875996,-0.07824690639972687,-0.04703905060887337,0.8950985074043274,0.08828108012676239,0.46810346841812134,-0.006943076848983765,-18.399158477783203,-28.577056884765625,-9.567895889282227
1696902340.0612843,-0.07997474819421768,0.013353591784834862,0.8670733571052551,-0.008541068062186241,-0.0709851086139679,-0.10926301032304764,-18.641260147094727,-28.16953468322754,-9.756268501281738
1696902340.1171513,-0.024930398911237717,-0.024122590199112892,0.8712162375450134,0.011777241714298725,-0.07568147778511047,-0.1491832733154297,-18.652807235717773,-27.810930252075195,-10.320566177368164
1696902340.1771052,-0.035050664097070694,0.018209444358944893,0.8843758702278137,0.06950400769710541,-0.2054903358221054,-0.4530887305736542,-19.762645721435547,-27.325218200683594,-9.747077941894531
1696902340.2477973,-0.09429121762514114,0.019423406571149826,0.9989133477210999,-0.11375556141138077,-0.20854467153549194,-0.5505217909812927,-19.900232315063477,-26.945632934570312,-9.557493209838867
1696902340.3025124,-0.06170890852808952,-0.04848640412092209,1.0703165531158447,-0.001967226155102253,-0.021009037271142006,-0.33855149149894714,-19.558929443359375,-26.845129013061523,-10.560708045959473
1696902340.3681104,-0.03529749810695648,-0.07526247948408127,1.069341778755188,-0.23073627054691315,0.4417213797569275,-0.13085731863975525,-19.672107696533203,-26.48418426513672,-10.668551445007324
1696902340.4327042,-0.09083551913499832,-0.054034601897001266,1.0788459777832031,0.028576035052537918,-0.41562798619270325,-0.05785893276333809,-20.225582122802734,-26.108564376831055,-10.548389434814453
1696902340.5039444,-0.016537988558411598,-0.00024122589093167335,0.9979385733604431,0.07897242158651352,-0.2106826901435852,-0.49554386734962463,-19.743995666503906,-25.952781677246094,-11.369430541992188
1696902340.5605679,-0.055044349282979965,-0.04848640412092209,0.9830730557441711,0.3123229444026947,0.4459974467754364,-0.2582227289676666,-19.971723556518555,-25.452117919921875,-11.185408592224121
1696902340.6278672,-0.1263798475265503,0.03204862028360367,0.8697540163993835,0.29949477314949036,0.004036438651382923,-0.41949114203453064,-20.021438598632812,-25.022546768188477,-11.654391288757324
1696902340.6802068,-0.09157602488994598,0.07915037870407104,0.874384343624115,-0.031899623572826385,-0.030782880261540413,-0.19224928319454193,-20.472450256347656,-24.562135696411133,-10.908249855041504
1696902340.7521725,-0.07627221941947937,0.033019788563251495,0.9092329144477844,-0.02774098515510559,0.1275334656238556,0.11125771701335907,-21.180177688598633,-24.40155792236328,-10.30138111114502
1696902340.8073494,-0.08565196394920349,0.021608538925647736,0.9141069054603577,-0.08546774834394455,0.019715748727321625,0.5651305317878723,-21.2930965423584,-24.274860382080078,-11.103950500488281
1696902340.8665533,0.013334525749087334,-0.05789421498775482,0.9406698346138,-0.183817058801651,-0.1604894995689392,0.8870565295219421,-21.167133331298828,-24.283002853393555,-11.799755096435547
1696902340.9347382,-0.05751270428299904,-0.015438457019627094,0.9701571464538574,0.07244091480970383,-0.16873617470264435,0.44662272930145264,-21.240903854370117,-24.150787353515625,-11.803192138671875
1696902340.99543,-0.042702566832304,0.03666168078780174,1.016459584236145,-0.29743799567222595,-0.28388428688049316,0.516872227191925,-21.959068298339844,-24.055809020996094,-11.097050666809082
1696902341.0620382,-0.029620278626680374,0.029620693996548653,1.0145100355148315,-0.2039756178855896,-0.1412472426891327,0.17753659188747406,-22.73543930053711,-23.83144187927246,-10.755514144897461
1696902341.131731,-0.08318360894918442,0.00995449535548687,1.0330308675765991,-0.42358165979385376,-0.020906789228320122,0.36476677656173706,-23.295671463012695,-23.728984832763672,-10.394025802612305
1696902341.1911736,-0.05282283201813698,-0.10831042379140854,1.030593991279602,-0.013385652564466,0.21152743697166443,-0.14897088706493378,-23.703697204589844,-23.243345260620117,-10.704952239990234
1696902341.255753,-0.1434115171432495,-0.04438556358218193,0.9460311532020569,0.23951256275177002,0.46198219060897827,-0.14622198045253754,-24.077415466308594,-22.895877838134766,-10.557390213012695
1696902341.302339,-0.14513936638832092,-0.03956104815006256,0.9128884077072144,-0.022548630833625793,0.37737733125686646,0.08926656097173691,-24.523923873901367,-22.817096710205078,-10.542994499206543
1696902341.372191,-0.1318102329969406,-0.029188333079218864,0.8902245759963989,0.032531872391700745,0.030689522624015808,-0.06561227887868881,-24.837352752685547,-22.628671646118164,-11.437344551086426
1696902341.4485095,-0.09453805536031723,-0.039078593254089355,0.8834010362625122,-0.05787617713212967,0.2591531276702881,-0.303544282913208,-24.841777801513672,-22.6181640625,-11.80070686340332
1696902341.5026946,-0.1320570707321167,0.0007283777231350541,0.8919304609298706,0.21426428854465485,0.09299777448177338,-0.019491951912641525,-25.382568359375,-22.520095825195312,-11.443647384643555
1696902341.552217,-0.116506427526474,-0.018815619871020317,0.9606529474258423,-0.09605525434017181,-0.15745696425437927,-0.1975591778755188,-25.418912887573242,-22.346275329589844,-11.901262283325195
1696902341.6120927,-0.05479751527309418,-0.054758280515670776,1.0242578983306885,-0.11743553727865219,-0.24267266690731049,-0.13433462381362915,-25.34309959411621,-22.25412940979004,-12.211210250854492
1696902341.6626291,-0.023943057283759117,-0.06006524711847305,1.0315687656402588,-0.11896270513534546,0.12995512783527374,-0.389370858669281,-25.355443954467773,-22.064329147338867,-11.53176498413086
1696902341.7151747,-0.08589880913496017,-0.07863964140415192,0.9357959032058716,0.19990895688533783,0.050542645156383514,-0.23726540803909302,-25.421010971069336,-22.171775817871094,-10.997984886169434
1696902341.7722156,-0.09527856111526489,0.014324761927127838,0.9440816044807434,-0.2823691666126251,-0.38653144240379333,0.04098370671272278,-25.9299259185791,-22.240022659301758,-10.051203727722168
1696902341.8241673,-0.03751901909708977,-0.021469103172421455,1.0001319646835327,-0.3938520550727844,-0.5233652591705322,-0.030487529933452606,-26.324050903320312,-21.869464874267578,-8.8620023727417
1696902341.8852408,0.013576971367001534,-0.050416212528944016,0.9577286243438721,-0.05360012501478195,-0.18036441504955292,-0.38784369826316833,-25.76521873474121,-21.948326110839844,-9.518550872802734
1696902341.9487739,-0.004936712794005871,-0.012061295099556446,0.9877033233642578,-0.0032037412747740746,0.3611676096916199,-0.39792296290397644,-25.68379783630371,-21.60822296142578,-9.615774154663086
1696902341.9953363,-0.06713929772377014,-0.055481959134340286,0.9470059275627136,0.4549452066421509,0.5856606364250183,-0.7439781427383423,-25.98687171936035,-21.430858612060547,-9.096183776855469
1696902342.05374,-0.1555064469575882,-0.022916460409760475,0.9781991243362427,0.26038461923599243,0.26129114627838135,-0.7195435166358948,-25.69146156311035,-21.279787063598633,-8.205548286437988
1696902342.1091373,-0.15994949638843536,-0.02894710749387741,0.9647958278656006,0.4045488238334656,-0.03009156510233879,-0.33530929684638977,-25.799646377563477,-21.30544662475586,-8.856640815734863
1696902342.1671367,-0.13526593148708344,-0.02243400737643242,0.9474933743476868,0.44608765840530396,-0.2716887891292572,-0.3078203499317169,-25.655641555786133,-21.358240127563477,-9.474143028259277
1696902342.2191515,-0.14538618922233582,0.045159418135881424,0.9716193079948425,0.48212870955467224,-0.4286811649799347,-0.08913058787584305,-25.230478286743164,-21.257835388183594,-8.921051025390625
1696902342.2821248,-0.11625958979129791,0.08376343548297882,1.025476336479187,-0.018169939517974854,-0.44578537344932556,0.4652296304702759,-25.424161911010742,-20.743085861206055,-7.622605323791504
1696902342.337688,-0.09256336838006973,0.10949944704771042,0.9818546175956726,-0.13973212242126465,-0.5212271809577942,0.6460457444190979,-24.551294326782227,-20.926054000854492,-7.520946025848389
1696902342.4068913,-0.008886083029210567,0.07453731447458267,1.0227956771850586,-0.19135023653507233,-0.2316771000623703,0.38551169633865356,-24.47986602783203,-20.865074157714844,-6.8117780685424805
1696902342.4766264,-0.02468356490135193,0.11605485528707504,0.972594141960144,-0.3394850492477417,0.11834868788719177,-0.3453885614871979,-24.136497497558594,-20.643354415893555,-5.9312357902526855
1696902342.5570712,-0.06664562970399857,-0.029188333079218864,0.9630899429321289,-0.12934741377830505,0.5511467456817627,-0.7183218002319336,-23.84840965270996,-20.924474716186523,-6.314781188964844
1696902342.6112201,-0.09972159564495087,-0.027982203289866447,0.9099640250205994,-0.08903030306100845,0.16416358947753906,-0.7155728936195374,-24.3212890625,-21.25931739807129,-6.448070049285889
1696902342.6960516,-0.03702534735202789,-0.041973307728767395,0.9048464298248291,0.053606726229190826,0.024580873548984528,-0.9379278421401978,-24.316516876220703,-21.754226684570312,-6.511048316955566
1696902342.761415,-0.016537988558411598,0.026464389637112617,0.9375017285346985,-0.3294057846069336,0.18493300676345825,-1.1263797283172607,-24.223052978515625,-21.936288833618164,-6.638577461242676
1696902342.8259187,-0.09404438734054565,-0.11072268337011337,1.0435099601745605,0.39630213379859924,-0.047501225024461746,-0.8655403256416321,-24.081417083740234,-22.539379119873047,-7.581496715545654
1696902342.8847938,-0.0012341781985014677,-0.04607414826750755,0.9950142502784729,-0.0410773865878582,-0.4534212052822113,-1.1071375608444214,-24.03841781616211,-22.79018783569336,-7.650455474853516
1696902342.9381826,0.03394242748618126,-0.03039446286857128,0.9828293919563293,0.12110733985900879,0.11804325133562088,-1.026503324508667,-23.650022506713867,-22.997365951538086,-7.410971641540527
1696902343.0038836,0.00630359398201108,-0.029188333079218864,0.9791739583015442,-0.09972044825553894,0.5325153470039368,-1.1865500211715698,-22.527210235595703,-23.167564392089844,-7.871503829956055
1696902343.0809548,-0.046898774802684784,-0.03956104815006256,1.0011066198349,0.2212892323732376,0.3599458932876587,-1.3691986799240112,-22.58879280090332,-23.459243774414062,-7.4298906326293945
1696902343.1593502,-0.06393042951822281,-0.019298071041703224,1.006224274635315,0.20510131120681763,0.24937929213047028,-1.4788490533828735,-22.476497650146484,-23.28788948059082,-7.27040433883667
1696902343.2312334,-0.13304440677165985,-0.008201680146157742,0.950417697429657,0.489764541387558,-0.321779727935791,-1.0509378910064697,-21.645313262939453,-23.295101165771484,-6.440889358520508
1696902343.2984183,-0.0757785439491272,-0.009166584350168705,0.9957453608512878,0.07162725180387497,-0.5029012560844421,-0.6276082992553711,-20.809785842895508,-23.240793228149414,-7.007105827331543
1696902343.365605,-0.020487360656261444,-0.047521501779556274,0.9489555358886719,0.2680204212665558,-0.2512247860431671,-0.8392730951309204,-20.14043426513672,-22.622169494628906,-6.396059989929199
1696902343.4245484,-0.0466519370675087,-0.014714779332280159,0.9077707529067993,0.24053150415420532,-0.028869837522506714,-0.9141041040420532,-19.305522918701172,-22.203081130981445,-5.994277477264404
1696902343.4786901,-0.10539881885051727,-0.0004824517818633467,0.8263760209083557,0.35567960143089294,0.011752702295780182,-0.7821571826934814,-18.36065101623535,-21.869375228881836,-6.065513610839844
1696902343.5593975,-0.1261330097913742,0.004613059107214212,0.8470902442932129,0.014816783368587494,-0.03161872923374176,-0.23085132241249084,-18.07314109802246,-21.276609420776367,-6.464978218078613
1696902343.6253407,-0.07355701923370361,-0.00844290666282177,0.9080144762992859,-0.4441535472869873,0.016295799985527992,0.4498004913330078,-17.793811798095703,-21.276168823242188,-7.038520812988281
1696902343.7032156,0.008970499038696289,-0.07236777245998383,0.8977791666984558,-0.2871611714363098,0.11281250417232513,0.36641737818717957,-17.09219741821289,-21.454023361206055,-7.620573997497559
1696902343.7884896,-0.10836084932088852,0.05827021971344948,0.7379140853881836,0.28583043813705444,-0.632748544216156,0.02463827282190323,-16.995853424072266,-21.22966766357422,-7.2178144454956055
1696902343.8549259,-0.07997474819421768,0.04030356928706169,0.7922585010528564,0.056450534611940384,-0.8547980785369873,0.5851070880889893,-16.443450927734375,-21.118810653686523,-7.417734622955322
1696902343.9303916,0.01745610684156418,0.05899859592318535,0.9440816044807434,-0.29052093625068665,-0.6858938336372375,0.9733119606971741,-15.759024620056152,-21.23346519470215,-7.697169303894043
1696902343.9890447,0.11540426313877106,-0.04293820634484291,0.9031404852867126,0.2980477511882782,0.08226925134658813,0.7689775228500366,-14.626141548156738,-22.274091720581055,-8.521775245666504
1696902344.0457125,0.09940282255411148,0.02986348792910576,0.9228799343109131,0.6233334541320801,-0.08052633702754974,0.14864391088485718,-13.993764877319336,-22.273822784423828,-8.377264976501465
1696902344.1183524,0.21286751329898834,-0.12905585765838623,1.0856693983078003,0.1215076819062233,0.6925235986709595,0.5316564440727234,-13.329710960388184,-21.717124938964844,-8.514552116394043
1696902344.176932,0.2569926679134369,-0.07453880459070206,1.026207447052002,0.1364738792181015,0.8446290493011475,-0.07829251885414124,-13.794612884521484,-21.791595458984375,-8.608770370483398
1696902344.234962,0.18110710382461548,-0.04149085283279419,1.1056526899337769,0.05706140026450157,1.205039620399475,-0.5401066541671753,-13.813539505004883,-21.44858169555664,-8.868646621704102
1696902344.3317392,-0.04541775956749916,-0.048968859016895294,1.1256357431411743,0.12425657361745834,0.9124351143836975,0.23691394925117493,-14.481163024902344,-21.02694320678711,-10.012848854064941
1696902344.3892584,0.0014546754537150264,-0.11554720252752304,1.1870473623275757,-0.0009708022698760033,0.10242779552936554,0.21950429677963257,-14.842453956604004,-20.732166290283203,-9.424118041992188
1696902344.441938,-0.116506427526474,0.06361165642738342,1.2019128799438477,-0.0706094428896904,-0.7017763257026672,0.13092882931232452,-15.338555335998535,-20.509613037109375,-8.235055923461914
1696902344.5000126,-0.0698544830083847,-0.07285021990537643,1.187291145324707,-0.4481241703033447,-0.32823219895362854,-0.12319111824035645,-15.541475296020508,-20.151330947875977,-7.495755672454834
1696902344.571202,-0.1281076967716217,0.0033990959636867046,1.0812829732894897,-0.6555129289627075,-0.15566276013851166,0.22714009881019592,-15.36563777923584,-20.0117130279541,-7.594979286193848
1696902344.631414,-0.08244311064481735,0.011411250568926334,1.0659300088882446,-0.21324646472930908,-0.6718438863754272,0.42842021584510803,-15.059328079223633,-20.599647521972656,-7.908841609954834
1696902344.68235,-0.0659051164984703,-0.011096390895545483,1.0203588008880615,0.09768392890691757,-0.5435622334480286,-0.23956093192100525,-14.506295204162598,-20.507192611694336,-8.218502044677734
1696902344.7356436,-0.10441148281097412,0.04952968657016754,0.9957453608512878,0.21466463804244995,-0.23629698157310486,0.30685803294181824,-13.698963165283203,-21.151817321777344,-9.396707534790039
1696902344.8012938,-0.08861400187015533,0.04491662606596947,0.9645521640777588,0.04209519922733307,0.0538640134036541,0.38291072845458984,-13.371055603027344,-20.92471694946289,-9.862881660461426
1696902344.8621964,-0.11700009554624557,0.05632787570357323,0.9406698346138,0.41563931107521057,0.11159077286720276,0.5292129516601562,-13.469490051269531,-20.785173416137695,-9.74484634399414
1696902344.9203234,-0.04393674433231354,0.027921147644519806,0.8982665538787842,0.14502599835395813,0.005605657584965229,0.2674572169780731,-13.108586311340332,-20.677997589111328,-10.045230865478516
1696902344.963166,-0.035791169852018356,0.082792267203331,0.8780397176742554,0.16457368433475494,-0.10007402300834656,0.4708753526210785,-12.778870582580566,-20.802692413330078,-10.180845260620117
1696902345.0133147,0.028851065784692764,0.04103194549679756,0.8690229058265686,0.04423322528600693,-0.016690922901034355,0.31052321195602417,-12.467901229858398,-20.856218338012695,-10.96843433380127
1696902345.0657136,0.010182728059589863,0.04200311377644539,0.8556196093559265,-0.0658191367983818,0.025030899792909622,0.03893885016441345,-12.300602912902832,-20.992467880249023,-11.130751609802246
1696902345.1260247,-0.013329125009477139,0.07696525007486343,0.8909556865692139,0.03253016993403435,-0.02536548301577568,-0.2759622037410736,-12.845662117004395,-20.931121826171875,-10.12788200378418
1696902345.182256,-0.010120261460542679,0.11192738264799118,0.9221488833427429,-0.022223379462957382,-0.06718495488166809,-0.06308674812316895,-13.117610931396484,-20.737241744995117,-8.834434509277344
1696902345.234346,0.028851065784692764,0.11945395171642303,0.9986696839332581,-0.13222496211528778,0.10547550022602081,0.10283051431179047,-13.127457618713379,-20.734914779663086,-8.554117202758789
1696902345.2874336,0.038064006716012955,0.05584229528903961,1.0181653499603271,0.08951912820339203,0.24017128348350525,0.24363495409488678,-13.266685485839844,-20.259666442871094,-9.88228702545166
1696902345.3393233,0.05067119374871254,-0.006271873135119677,0.9981822967529297,0.24131914973258972,0.04469440504908562,0.11382609605789185,-12.576885223388672,-20.52296257019043,-10.38648796081543
1696902345.397759,0.0841287299990654,0.08060713857412338,0.9718630313873291,0.18878473341464996,-0.1162685826420784,-0.023924019187688828,-12.506011009216309,-20.87871742248535,-10.330212593078613
